time,acc_x,acc_y,acc_z,gravity_x,gravity_y,gravity_z1419803784618.00,-5.407305,6.746262,3.292626,-4.152297,8.259735,3.2719421419803784618.00,-5.7921724,6.5122285,3.5182793,-4.3301215,8.158284,3.29588221419803784633.00,-6.229114,6.338649,3.7217865,-4.525516,8.03452,3.33715151419803784634.00,-6.657676,6.1985884,3.839701,-4.7355165,7.890896,3.38807561419803784649.00,-7.0365586,6.0746884,3.8983588,-4.954192,7.733267,3.43845251419803784664.00,-7.207744,5.969343,3.7541082,-5.1793175,7.5628695,3.4854051419803784668.00,-7.3190746,5.909488,3.518878,-5.39114,7.401604,3.5103061419803784680.00,-7.3298483,5.9244523,3.301604,-5.5901103,7.253336,3.50858571419803784686.00,-7.3071036,5.934029,3.156755,-5.7680163,7.124335,3.48485761419803784704.00,-7.1951747,5.961562,3.0873232,-5.9243493,7.0120673,3.45012951419803784706.00,-7.0491285,5.93343,3.0508115,-6.0527816,6.917522,3.41791341419803784717.00,-7.055114,5.8358665,3.0083144,-6.1568594,6.8360314,3.39590361419803784737.00,-7.04434,5.6431336,3.027468,-6.2581983,6.7534995,3.37573461419803784744.00,-7.047931,5.461174,3.0400376,-6.355658,6.6677513,3.36408971419803784747.00,-7.120356,5.305551,3.0250738,-6.4510555,6.576381,3.36236021419803784781.00,-7.2143283,5.1762643,2.9981391,-6.5497894,6.479304,3.35995171419803784781.00,-7.243657,5.092467,3.0759506,-6.650913,6.3791866,3.35286971419803784782.00,-7.165247,5.149928,3.2004492,-6.745724,6.2799115,3.35086461419803784807.00,-7.180211,5.379771,2.903568,-6.822853,6.1940475,3.3545241419803784808.00,-7.12694,5.6000376,2.6420016,-6.8856416,6.1370487,3.33091071419803784808.00,-7.029376,5.805341,2.540248,-6.9378223,6.1084614,3.27470681419803784815.00,-6.911462,5.9980736,2.5893292,-6.974713,6.101975,3.20775181419803784837.00,-6.6804214,6.211756,2.6797101,-6.991762,6.11223,3.15060381419803784837.00,-6.3272767,6.4523735,2.746748,-6.9804664,6.1433315,3.11495781419803784848.00,-5.9861026,6.589442,2.908955,-6.9372134,6.2015166,3.09623241419803784866.00,-5.7670336,6.6163764,3.1232362,-6.870734,6.274198,3.098041419803784866.00,-5.6042275,6.6121864,3.2333694,-6.7927694,6.3464537,3.12269541419803784883.00,-5.445612,6.6391215,3.271078,-6.7122984,6.4148655,3.15673141419803784907.00,-5.3235073,6.642114,3.2160115,-6.629134,6.4844007,3.1902221419803784908.00,-5.2642508,6.6044054,3.181894,-6.5480313,6.5547504,3.21386481419803784908.00,-5.2397103,6.602011,3.2016463,-6.4732127,6.6197643,3.23212651419803784915.00,-5.209184,6.5960255,3.306991,-6.4015565,6.677999,3.2549631419803784936.00,-5.245097,6.625953,3.3722332,-6.333365,6.729517,3.2821431419803784937.00,-5.243302,6.5984197,3.3859997,-6.269573,6.7744527,3.31204181419803784951.00,-5.2582655,6.521207,3.4506433,-6.211572,6.81284,3.3424511419803784964.00,-5.2618566,6.495469,3.5901055,-6.1623373,6.840199,3.37752131419803784966.00,-5.2325277,6.4966664,3.727772,-6.1164403,6.8588653,3.42279461419803784981.00,-5.189432,6.5259953,3.8432922,-6.0694056,6.872982,3.4777621419803785001.00,-5.1744685,6.591237,3.9318779,-6.018245,6.885876,3.54059551419803785001.00,-5.1702785,6.619369,3.9971197,-5.9671702,6.8990774,3.60083481419803785014.00,-5.187038,6.6708446,4.0396166,-5.917261,6.910134,3.6614851419803785017.00,-5.183447,6.6744356,4.099472,-5.870238,6.9204984,3.71717741419803785030.00,-5.203199,6.622362,4.1653123,-5.82553,6.928346,3.7724831419803785035.00,-5.243302,6.5505357,4.248511,-5.7864347,6.929767,3.82960651419803785047.00,-5.3648076,6.4511766,4.3299136,-5.7539177,6.9226108,3.8910531419803785061.00,-5.60722,6.4020953,4.4633904,-5.7349477,6.903668,3.9522341419803785066.00,-5.878962,6.467936,4.559159,-5.731122,6.86972,4.01641271419803785079.00,-6.2087636,6.631939,4.63697,-5.739714,6.8281617,4.07458971419803785097.00,-6.50744,6.687604,4.964976,-5.760634,6.782736,4.12067941419803785098.00,-6.8462195,6.8623805,5.341464,-5.7904205,6.7201967,4.1809561419803785115.00,-7.2747817,7.2370734,5.529409,-5.8242106,6.649536,4.2464841419803785116.00,-7.739856,7.6949644,5.657499,-5.863284,6.5795064,4.301441419803785132.00,-8.1720085,8.103176,5.597045,-5.9047527,6.519559,4.3358551419803785150.00,-8.444349,8.243237,5.2558713,-5.9601755,6.470365,4.3337131419803785151.00,-8.616732,8.057686,4.707599,-6.0330305,6.427543,4.2964661419803785166.00,-8.859145,7.401076,4.262876,-6.1300974,6.3817797,4.2267221419803785166.00,-9.205706,6.8222775,3.9612067,-6.262979,6.305025,4.14634231419803785183.00,-9.249998,6.689998,3.3997664,-6.4142904,6.210544,4.056651419803785197.00,-8.845977,7.2664022,3.086126,-6.5663476,6.125224,3.94145941419803785198.00,-7.642292,10.53748,17.352575,-6.6556077,6.1090627,3.81479361419803785215.00,-4.350863,8.282741,9.716867,-6.2298136,5.977617,4.6505821419803785215.00,-4.4783545,5.0278234,-4.3161473,-5.94067,6.0382223,4.94152831419803785238.00,-9.235633,3.0478187,-19.576788,-6.2153864,6.3490534,4.15076881419803785240.00,-10.567408,2.926313,-16.386515,-7.138784,6.490486,1.75548651419803785247.00,-9.897031,4.2275615,0.9648633,-7.567869,6.2252064,-0.380189991419803785276.00,-9.45171,4.999093,5.3037553,-7.7574677,5.992435,-0.28783611419803785276.00,-9.745598,4.401141,-1.6106992,-7.823363,5.8720455,0.69602471419803785277.00,-9.551667,4.6860514,-3.5643678,-7.924272,5.7058053,0.905600371419803785323.00,-8.6496525,5.4647655,-2.232593,-8.075555,5.5482554,0.415531371419803785324.00,-8.471883,5.875371,-0.25857377,-8.1201315,5.4983687,-0.042526891419803785326.00,-8.520964,6.191406,0.93972415,-8.1189375,5.4988236,-0.127141121419803785327.00,-8.591593,6.6079965,1.7016789,-8.106579,5.518487,0.0069780221419803785329.00,-8.457518,6.980295,2.1290438,-8.080591,5.5523033,0.215389891419803785383.00,-8.328829,7.2125325,1.4646529,-8.032583,5.610913,0.406970441419803785384.00,-8.388684,7.3178773,-0.06703765,-7.975574,5.6863103,0.475928251419803785386.00,-8.531737,7.2514386,-0.80445176,-7.927682,5.7608857,0.366637861419803785390.00,-8.450933,7.0126166,-0.12090719,-7.891811,5.8182454,0.194193381419803785392.00,-8.094197,6.95755,0.7428011,-7.8649664,5.856275,0.12933191419803785414.00,-7.78355,7.057508,1.1426327,-7.8284388,5.903947,0.17131871419803785415.00,-7.619547,7.2789717,1.2240356,-7.778267,5.966008,0.275142641419803785416.00,-7.4166384,7.654263,1.1360487,-7.7159634,6.0411854,0.372025971419803785416.00,-6.979098,7.9325886,1.0103531,-7.6347446,6.1395245,0.432807481419803785437.00,-6.367978,7.9511437,0.89902276,-7.5295486,6.2653604,0.470672821419803785438.00,-5.6245785,7.631518,0.86370826,-7.409543,6.4045854,0.500361261419803785447.00,-5.149928,7.08564,0.48123455,-7.280667,6.548808,0.52478381419803785469.00,-5.0882773,6.1279593,0.23702596,-7.1677823,6.67246,0.521155061419803785469.00,-5.5443726,5.117606,0.17238252,-7.10806,6.7375174,0.50173251419803785476.00,-6.237494,4.2556934,-0.08140286,-7.1289682,6.7166114,0.485109331419803785514.00,-6.8893156,3.6415808,-0.4782418,-7.230658,6.6094465,0.450783281419803785516.00,-7.15986,3.3512838,-1.0720038,-7.3830624,6.4438996,0.370066081419803785517.00,-6.962937,3.3913867,-1.5412674,-7.55086,6.253234,0.227954781419803785519.00,-6.3362546,3.7924154,-1.6292542,-7.68238,6.095065,0.04025311419803785546.00,-5.5946507,4.177882,-1.5161282,-7.743867,6.0151324,-0.145218631419803785548.00,-4.9823337,4.3598413,-1.2785037,-7.7424407,6.0110245,-0.304288661419803785549.00,-4.520851,4.458602,-1.0755951,-7.7029,6.054197,-0.42713121419803785581.00,-4.150947,4.5513773,-0.8619126,-7.6393595,6.1268544,-0.521758851419803785583.00,-3.7816415,4.614824,-0.5955577,-7.5599484,6.2181997,-0.59293381419803785587.00,-3.7074213,4.6220064,-0.44711718,-7.457182,6.3383055,-0.621844231419803785610.00,-3.6822822,4.6232033,-0.53330845,-7.3544226,6.4559693,-0.63505381419803785611.00,-3.7032316,4.6363716,-0.7505822,-7.2549443,6.5656404,-0.65463591419803785612.00,-3.828927,4.621408,-1.0145429,-7.158848,6.6660185,-0.69677931419803785616.00,-4.222773,4.44723,-1.2330139,-7.0747232,6.747211,-0.770573441419803785630.00,-4.759673,4.1796775,-1.4281414,-7.0358686,6.77634,-0.86496381419803785649.00,-5.2079873,3.9791632,-1.4383167,-7.048276,6.7473106,-0.982858361419803785650.00,-5.467758,3.7702692,-1.4341269,-7.101874,6.675763,-1.08073431419803785666.00,-5.651513,3.433884,-1.5502456,-7.178871,6.578013,-1.16788411419803785700.00,-6.0525417,2.996942,-1.8249803,-7.28169,6.4453864,-1.26663671419803785702.00,-6.931214,2.5971103,-2.2972364,-7.2572227,6.4763236,-1.24913851419803785704.00,-8.173206,2.248754,-3.1884782,-7.250703,6.4853077,-1.2403491419803785706.00,-9.722255,1.9806033,-4.687248,-7.2666674,6.4653244,-1.25120771419803785750.00,-11.421539,1.6124948,-6.296152,-7.3230176,6.39044,-1.30617791419803785752.00,-12.960412,1.168969,-6.5385647,-7.4271812,6.244806,-1.41765561419803785752.00,-14.28261,0.830788,-5.585074,-7.5718827,6.0388317,-1.53931981419803785753.00,-15.434221,0.86370826,-4.6902413,-7.7435546,5.797049,-1.61307411419803785754.00,-16.103401,1.4466964,-4.660912,-7.9242377,5.542605,-1.62983881419803785769.00,-15.598823,2.7551277,-5.195418,-8.088703,5.296885,-1.63899831419803785770.00,-13.351266,4.6645036,-5.088876,-8.206657,5.105138,-1.660941419803785776.00,-11.086351,6.143522,-4.4262805,-8.25282,5.012039,-1.71488561419803785828.00,-9.704298,7.367557,-3.933075,-8.245148,5.0003147,-1.78458631419803785840.00,-9.830592,8.903438,-1.4137762,-8.206489,5.039159,-1.85226231419803785841.00,-9.384672,10.405201,-1.2838906,-8.156093,5.1137047,-1.87045841419803785841.00,-8.589797,11.113884,-2.7641058,-8.086283,5.2233415,-1.87058641419803785843.00,-9.880272,7.3926964,-4.540005,-8.007606,5.3489823,-1.85392811419803785972.00,-12.586917,2.319383,-5.321113,-7.9613905,5.4127226,-1.86790811419803785972.00,-14.098257,-0.08678981,-2.4504654,-7.9929576,5.3630824,-1.87627151419803785973.00,-11.411364,0.7170634,1.9351135,-8.099958,5.2127266,-1.84079741419803785973.00,-6.535572,2.2212207,3.7762547,-8.201282,5.0753617,-1.7748541419803785974.00,-2.9137435,3.1920695,4.0940847,-8.236274,5.033753,-1.73075351419803785974.00,-2.4121583,3.8750155,1.5352819,-8.223774,5.0592403,-1.71582481419803785975.00,-4.043208,3.9725792,0.6727707,-8.157995,5.1710243,-1.69646851419803785975.00,-5.378574,3.9731777,1.4700398,-8.083607,5.2973595,-1.66243761419803785976.00,-6.031593,4.173692,1.9422961,-8.033947,5.3889704,-1.60781981419803785976.00,-6.4697313,4.382586,2.2499511,-8.008493,5.4522257,-1.51911341419803785976.00,-7.052121,4.642357,2.8413188,-7.994955,5.5109286,-1.37140521419803785977.00,-7.9451585,5.0278234,3.1471782,-7.983127,5.572114,-1.17967921419803785977.00,-8.8328085,5.418677,2.007538,-7.9699464,5.631141,-0.96983521419803785978.00,-9.132084,5.923255,0.76434886,-7.9533615,5.6830773,-0.78554481419803785978.00,-9.027337,6.4817023,0.035913024,-7.9322295,5.7299094,-0.64673841419803786030.00,-8.740033,6.882133,-0.11611878,-7.9015427,5.7809243,-0.56295481419803786031.00,-8.546701,7.0209966,0.26635495,-7.8577256,5.8448596,-0.51395841419803786031.00,-8.578424,6.8749504,0.6973112,-7.805791,5.9179454,-0.466845961419803786032.00,-8.573038,6.6085954,0.9624691,-7.753808,5.990153,-0.40855861419803786032.00,-8.584411,6.2165446,1.1192893,-7.7053995,6.0568523,-0.334316131419803786070.00,-8.626907,5.6580973,1.1390414,-7.663222,6.114305,-0.246312261419803786071.00,-8.684368,4.915296,0.96905315,-7.627791,6.1612,-0.163830381419803786071.00,-8.673594,4.197634,0.7308301,-7.5997543,6.1970935,-0.100655261419803786071.00,-8.438962,3.6415808,0.50876784,-7.5775504,6.2247553,-0.0594406171419803786076.00,-8.106767,3.3327289,0.3345897,-7.5560813,6.2509713,-0.0368190331419803786100.00,-7.8027034,3.21661,0.24301147,-7.5326285,6.2792454,-0.0310515581419803786100.00,-7.6003933,3.1591492,0.15741876,-7.5033474,6.3142333,-0.0249292741419803786109.00,-7.4884644,3.1376014,0.059855044,-7.468303,6.355659,-0.020528411419803786116.00,-7.2807674,3.108871,-0.046088383,-7.430337,6.400022,-0.0146200621419803786129.00,-7.133524,3.0160956,-0.16220717,-7.392075,6.4441895,-0.0058346981419803786144.00,-7.2723875,2.9346926,-0.24959552,-7.3562694,6.485032,0.0070528411419803786147.00,-7.3484035,2.903568,-0.23223756,-7.3242383,6.5211554,0.0214694891419803786161.00,-7.36217,2.9586349,-0.109534726,-7.299719,6.5484586,0.046544311419803786177.00,-7.304111,3.2118216,0.12210429,-7.2823644,6.5673804,0.083950211419803786178.00,-7.1844006,3.4979286,0.44771573,-7.2685895,6.581788,0.134524791419803786195.00,-7.116166,3.6589386,0.7763199,-7.2556767,6.594398,0.198632231419803786196.00,-6.9767036,3.705027,1.0582372,-7.244071,6.60432,0.27710021419803786209.00,-6.895301,3.822343,1.2443863,-7.2351046,6.6098022,0.366300581419803786226.00,-6.8264675,4.0617633,1.4347254,-7.226542,6.6129208,0.465618461419803786227.00,-6.7887588,4.3556514,1.536479,-7.2193236,6.613547,0.559247731419803786242.00,-6.657078,4.6441526,1.5334862,-7.2114635,6.6140127,0.64810211419803786247.00,-6.925827,4.9021277,1.4251486,-7.2010403,6.6169233,0.72921041419803786258.00,-7.2262993,5.2247467,1.2785037,-7.1904507,6.620342,0.799293941419803786277.00,-7.315483,5.592855,1.0444705,-7.18192,6.622669,0.85477971419803786278.00,-7.3909006,5.9627595,0.7966706,-7.1729956,6.626259,0.900668141419803786294.00,-7.4764934,6.2512608,0.60333884,-7.1616693,6.6339397,0.933663851419803786296.00,-7.623737,6.4583592,0.46267948,-7.1466665,6.6466384,0.9580011419803786309.00,-7.815273,6.5505357,0.4441244,-7.128942,6.6625876,0.979026851419803786326.00,-8.234857,6.521207,0.5781997,-7.109598,6.67963,1.00326111419803786327.00,-8.696339,6.3512187,0.878672,-7.09057,6.6949363,1.03539411419803786343.00,-8.634089,6.0609217,1.1330559,-7.0721774,6.7073846,1.07967691419803786347.00,-8.6257105,5.5940523,1.3192052,-7.0523987,6.719564,1.132041419803786357.00,-8.7849245,5.0451818,1.3748703,-7.029701,6.7328496,1.19264791419803786375.00,-9.030331,4.6034513,1.3772645,-7.0071726,6.7448854,1.25555831419803786376.00,-9.3978405,4.1922474,1.2886791,-6.988219,6.753748,1.31228271419803786391.00,-9.692925,3.8726213,1.122282,-6.974917,6.7588916,1.35585641419803786398.00,-10.029311,3.570952,0.8972271,-6.9663596,6.761699,1.38550981419803786409.00,-10.33936,3.3369186,0.6464345,-6.963698,6.761221,1.40113881419803786425.00,-10.55005,3.176507,0.41599256,-6.964226,6.758444,1.41187291419803786428.00,-11.212646,3.1172507,0.29688102,-6.968883,6.753164,1.41415131419803786443.00,-12.184691,3.0813377,0.1316811,-6.9832153,6.73883,1.4118391419803786447.00,-12.827534,2.8401217,-0.40641573,-7.0136924,6.707801,1.40851771419803786459.00,-12.758701,2.5647886,-1.5059528,-7.060845,6.6588764,1.4050761419803786483.00,-12.228984,2.3481133,-3.9797618,-7.256583,6.47211,1.27443841419803786483.00,-11.1073,1.5592239,-7.502231,-7.256583,6.47211,1.27443841419803786487.00,-10.863091,0.7206547,11.520899,-7.256583,6.47211,1.27443841419803786496.00,-11.774085,-0.5093664,-9.401431,-7.334204,6.332303,1.510561419803786509.00,-9.78989,1.8567034,-7.1305313,-7.4630427,6.217252,1.34876081419803786529.00,-9.60853,3.6733038,-3.1370027,-7.5727944,6.1328583,1.100551419803786530.00,-10.939706,4.8362875,-0.56982,-7.7042694,6.0178947,0.77429921419803786542.00,-12.136209,6.5367694,0.6721721,-7.8441157,5.8645115,0.497742621419803786548.00,-12.603078,8.219295,-1.1402385,-7.998277,5.663026,0.357881131419803786559.00,-13.423691,9.247005,-1.0935516,-8.151149,5.4478827,0.223026081419803786581.00,-14.170681,9.749788,2.0733786,-8.291568,5.236321,0.035057871419803786581.00,-13.636774,11.212646,2.6437972,-8.417571,5.028817,-0.160946351419803786597.00,-12.26789,12.376825,1.8004397,-8.5106735,4.859414,-0.35343351419803786597.00,-10.485406,12.741343,0.89902276,-8.568419,4.7405987,-0.52848321419803786610.00,-8.302493,12.106879,0.10295067,-8.606886,4.646484,-0.70857151419803786628.00,-6.221333,10.720636,-0.36152446,-8.629254,4.5708065,-0.90225571419803786629.00,-5.1355624,9.2308445,-0.55485624,-8.648374,4.4964485,-1.07609261419803786643.00,-5.2235494,7.946954,-0.6961141,-8.67144,4.4142265,-1.22112121419803786662.00,-5.4779334,7.1353197,-0.84814596,-8.70102,4.3193893,-1.34368791419803786663.00,-5.2199583,6.6606693,-0.89782566,-8.733588,4.216551,-1.45447461419803786677.00,-4.7961845,6.302736,-0.65182143,-8.764685,4.113145,-1.55971961419803786677.00,-4.3460746,5.8215013,-0.35913026,-8.790177,4.02023,-1.65558411419803786693.00,-4.096479,5.072715,-0.27832595,-8.811792,3.9399788,-1.73184551419803786697.00,-3.946243,4.214992,-0.23942018,-8.832757,3.8692951,-1.7836371419803786711.00,-3.8977604,3.3393128,-0.4854244,-8.851996,3.8083594,-1.8190551419803786729.00,-3.891775,2.6210523,-0.4830302,-8.867017,3.759643,-1.8470291419803786729.00,-4.2078094,1.9871874,0.088585466,-8.878631,3.716821,-1.87765971419803786743.00,-4.9296613,1.4544775,0.91817635,-8.890876,3.679102,-1.89392111419803786749.00,-5.559935,1.174356,1.6011224,-8.907891,3.6354184,-1.89830731419803786759.00,-5.625177,1.541866,1.7226281,-8.933131,3.5787718,-1.88730611419803786777.00,-5.182848,2.6378117,1.1779473,-8.961548,3.5154614,-1.87151471419803786777.00,-4.724957,3.6260185,0.44352585,-8.983827,3.4593356,-1.86929751419803786794.00,-4.2538977,4.4861355,-0.092775315,-8.995471,3.4193273,-1.88682731419803786796.00,-3.828927,5.2199583,-0.37948096,-8.998549,3.3926888,-1.91993521419803786811.00,-3.5954924,5.6640825,-0.4770447,-8.990553,3.3906302,-1.9606081419803786825.00,-3.6260185,5.765238,-0.59017074,-8.97361,3.4119189,-2.00088451419803786830.00,-3.8456864,5.478532,-0.8194155,-8.952878,3.4487362,-2.0304111419803786841.00,-4.4502225,5.0014873,-1.0366893,-8.93301,3.492621,-2.0428761419803786858.00,-5.1762643,4.597466,-0.973243,-8.916666,3.5409431,-2.03106161419803786858.00,-5.741296,4.2437224,-0.46686932,-8.905949,3.59077,-1.9901861419803786874.00,-6.4380083,3.8983588,0.05805939,-8.894446,3.6512809,-1.93064251419803786877.00,-7.313688,3.5793316,0.2908955,-8.883643,3.7246113,-1.83808351419803786899.00,-8.455123,3.402759,0.3764882,-8.873128,3.805337,-1.71971491419803786899.00,-10.290278,3.4123359,-0.8726865,-8.863382,3.8857064,-1.58496621419803786908.00,-12.627619,3.413533,-4.3101616,-8.856119,3.952269,-1.45571431419803786924.00,-15.565304,2.7778726,-7.2939353,-8.854264,3.9839904,-1.37848621419803786928.00,-19.289484,0.272939,-8.650849,-8.864703,3.9635673,-1.37023971419803786943.00,-19.60911,-3.2603042,-8.46889,-8.928898,3.7989817,-1.41876671419803786959.00,-19.60911,-4.1826706,-8.878897,-9.052389,3.4778905,-1.45908761419803786959.00,-15.726314,-1.328782,-7.1610575,-9.186918,3.1043518,-1.46080551419803786973.00,-10.822391,1.0085574,-3.83192,-9.259321,2.9091687,-1.40431861419803786976.00,-8.729858,1.8351556,-0.29568392,-9.273934,2.881471,-1.36441211419803786994.00,-7.255628,2.043451,2.6246436,-9.262739,2.8973339,-1.40625621419803787010.00,-5.647922,2.2750902,4.7776294,-9.241639,2.9359515,-1.46378371419803787011.00,-5.0667295,3.120842,7.277176,-9.214384,2.9781923,-1.54785731419803787027.00,-5.8226986,4.38917,7.917625,-9.191445,3.0260212,-1.59088391419803787028.00,-7.4112515,7.3645644,6.025607,-9.175481,3.0888457,-1.56204131419803787043.00,-8.72507,12.000936,3.5242648,-9.149309,3.199417,-1.49139361419803787057.00,-10.717046,17.694946,-12.567763,-9.085986,3.399397,-1.4350411419803787057.00,-13.417705,19.434933,-6.8653736,-9.038745,3.5074122,-1.47293671419803787074.00,-12.53604,14.0868845,12.121843,-8.990292,3.6113157,-1.51770641419803787077.00,-10.937312,8.18398,5.3079453,-8.977639,3.6593797,-1.4769391419803787091.00,-7.925406,5.159505,-2.566584,-7.8968687,5.7677054,0.737163361419803787097.00,-5.0104656,3.1561563,-4.7734394,-7.9605923,5.7134585,0.394631771419803787109.00,-3.4757824,2.0524294,-1.532289,-7.976024,5.698439,-0.28497081419803787123.00,-2.8491,1.3162124,0.58119243,-7.980573,5.6800113,-0.467262721419803787129.00,-3.1381998,0.9020155,1.3856442,-8.004614,5.655704,-0.331015351419803787142.00,-4.630985,1.6310499,1.8022354,-8.064371,5.5795445,-0.0706628561419803787159.00,-6.035184,3.0160956,2.204461,-8.134021,5.4749637,0.181331561419803787159.00,-7.20954,4.667496,2.5773582,-8.169579,5.4078655,0.42824241419803787174.00,-8.162432,6.51582,2.8514943,-8.145602,5.4185677,0.67724231419803787177.00,-8.954913,8.061875,2.8844144,-8.05461,5.52131,0.899336641419803787192.00,-9.957485,8.653842,2.6485856,-7.931574,5.6680446,1.06479791419803787208.00,-11.158775,7.8062944,1.7417817,-7.833752,5.7815323,1.17329561419803787208.00,-11.410766,6.18542,0.7062895,-7.855266,5.755108,1.15927411419803787222.00,-9.954493,4.6920366,-0.05746084,-7.9737782,5.609888,1.05754911419803787228.00,-8.39886,3.6727054,-0.54168814,-8.0993805,5.453046,0.91363641419803787240.00,-7.7847466,2.9239187,-0.7320272,-8.198733,5.3271074,0.75702661419803787258.00,-7.6345105,2.4432828,-0.7529764,-8.298127,5.190276,0.61033091419803787258.00,-7.6823945,2.1080947,-0.6087258,-8.4026785,5.0325046,0.48918991419803787273.00,-7.8853035,1.8315643,-0.35673606,-8.514538,4.848644,0.40460081419803787277.00,-8.02716,1.8154035,-0.09935937,-8.630999,4.6416574,0.362280821419803787291.00,-8.10138,2.099715,0.12808979,-8.736467,4.4406075,0.35430911419803787307.00,-8.130709,2.5234885,0.26874915,-8.817067,4.2768283,0.372079761419803787308.00,-8.258201,2.8413188,0.40462008,-8.870496,4.162059,0.402411419803787322.00,-8.194754,2.9789855,0.53211135,-8.908259,4.076457,0.44248251419803787328.00,-8.103176,2.9813797,0.6194997,-8.936187,4.0112457,0.474209761419803787340.00,-7.914034,3.0023289,0.6823475,-8.960217,3.9516516,0.51898061419803787358.00,-7.632715,3.0585926,0.65182143,-8.978572,3.9043157,0.558515371419803787358.00,-7.4004774,3.0897174,0.46746787,-8.988322,3.8778489,0.58545071419803787372.00,-7.402273,3.031658,0.13587095,-8.992161,3.8687446,0.586740141419803787377.00,-7.475895,2.9879637,-0.2148796,-8.999362,3.8575532,0.548782471419803787389.00,-7.6231384,2.9622262,-0.5907693,-9.011326,3.8393788,0.474926381419803787407.00,-7.739257,3.0430303,-0.8487445,-9.027105,3.8148727,0.358477921419803787408.00,-7.86615,3.2267854,-0.99778354,-9.038532,3.7978597,0.227114811419803787423.00,-8.042124,3.3327289,-0.99299514,-9.04097,3.797573,0.0985287651419803787428.00,-8.215703,3.3608606,-0.83018947,-9.0401125,3.800867,-0.0123895261419803787439.00,-8.321048,3.3423057,-0.5518635,-9.040733,3.7983692,-0.089098671419803787456.00,-8.382699,3.347094,-0.2681506,-9.044511,3.7883391,-0.125354231419803787457.00,-8.509591,3.4422636,0.02873042,-9.049155,3.7771945,-0.126420971419803787473.00,-8.84478,3.5607765,0.28790274,-9.052346,3.7704556,-0.095215691419803787491.00,-9.123704,3.7870286,0.5069722,-9.056376,3.7616944,-0.0455073681419803787491.00,-9.394848,3.9761705,0.6476316,-9.055914,3.7630613,0.0141682261419803787507.00,-9.865907,4.06715,0.7667431,-9.052744,3.7699823,0.073787121419803787510.00,-10.208278,4.1156325,0.83856916,-9.053051,3.7675374,0.135369421419803787524.00,-10.373477,4.198831,0.87208796,-9.057128,3.754668,0.203165781419803787528.00,-10.590752,4.256292,0.87567925,-9.059572,3.7453551,0.258522931419803787539.00,-10.6954975,4.1934443,0.9091981,-9.061233,3.7374783,0.309407321419803787555.00,-10.506355,4.144962,0.8487445,-9.0652895,3.7231274,0.359524221419803787557.00,-10.162787,4.0779243,0.6572084,-9.067279,3.714082,0.400558231419803787570.00,-9.912594,3.887585,0.55246204,-9.066456,3.713887,0.420478171419803787577.00,-9.680356,3.7523127,0.49440265,-9.069745,3.704899,0.428740981419803787589.00,-10.037092,3.9432502,0.24839842,-9.074301,3.6934898,0.430762231419803787606.00,-10.866084,4.541202,-0.1364695,-9.079053,3.6845438,0.40660981419803787608.00,-11.48319,5.04578,-0.7410054,-9.077249,3.6953676,0.343802331419803787624.00,-11.620258,5.0942626,-3.477578,-9.070388,3.7211614,0.2267151419803787628.00,-10.852917,4.6393642,-10.069414,-9.065755,3.737459,-0.117830851419803787639.00,-9.496002,4.1000705,-1.411382,-9.015099,3.7297544,-0.99364221419803787656.00,-10.329783,3.1729157,9.998186,-9.01564,3.7236564,-1.01142451419803787657.00,-9.5570545,1.6861166,-7.587225,-9.108233,3.6342003,0.0554062461419803787672.00,-8.006809,2.5061307,-2.345719,-9.17198,3.4376729,-0.47704411419803787677.00,-7.4812818,2.7682958,0.21667525,-9.189714,3.3488803,-0.71031631419803787691.00,-7.7733746,2.5671828,-0.79008657,-9.169928,3.3244982,-1.01514791419803787705.00,-8.916007,2.8119898,-1.4036007,-9.180265,3.2738903,-1.08386671419803787708.00,-10.551247,3.9402575,-0.60453594,-9.201704,3.213466,-1.08289291419803787722.00,-11.541848,5.5844755,0.032920275,-9.214096,3.1933653,-1.03598621419803787740.00,-12.194866,7.1287355,0.5422867,-9.190931,3.2900465,-0.93420161419803787740.00,-12.884995,8.517971,1.5466543,-9.136822,3.4837582,-0.743164661419803787755.00,-13.184869,9.185953,0.28491,-9.055379,3.7336667,-0.479841051419803787757.00,-13.0202675,9.123704,-1.0564415,-8.956536,3.9741924,-0.395781521419803787772.00,-12.284649,8.470686,-0.8559271,-8.861342,4.175013,-0.46505791419803787777.00,-10.5602255,7.6369047,-0.38307226,-8.780787,4.335158,-0.52398241419803787791.00,-8.55987,7.00304,-0.26635495,-8.698368,4.495571,-0.54644381419803787811.00,-7.4375877,6.613384,-0.14305355,-8.603013,4.678919,-0.51605331419803787814.00,-7.1431007,6.4751186,0.060453594,-8.505317,4.859489,-0.464081171419803787832.00,-7.0622964,6.6109896,-0.06943185,-8.417231,5.015235,-0.409920541419803787833.00,-6.830059,6.7109475,-0.26276365,-8.329027,5.162601,-0.38113811419803787838.00,-6.314707,6.576872,-0.30585927,-8.234626,5.312253,-0.37588031419803787859.00,-5.774216,6.221333,-0.130484,-8.134088,5.4649167,-0.376422761419803787859.00,-5.2277393,5.7903767,0.15442601,-8.036827,5.6078744,-0.362691161419803787875.00,-4.985925,5.0505686,0.24301147,-7.945705,5.7391143,-0.314236641419803787877.00,-5.0541596,4.111443,0.18076223,-7.8836217,5.8270884,-0.25288871419803787891.00,-5.093664,3.280655,-0.1328782,-7.870637,5.846576,-0.2024931419803787905.00,-5.341464,2.5222914,-0.82240826,-7.8991256,5.8082585,-0.195796711419803787910.00,-5.939416,1.8656816,-0.973243,-7.970845,5.7066617,-0.264575661419803787922.00,-6.2345014,1.7172412,-0.34596214,-8.095571,5.523788,-0.346280131419803787942.00,-6.0022635,2.1787236,0.29628247,-8.2349,5.3134913,-0.351588161419803787943.00,-5.7790046,2.8874073,0.4938041,-8.332003,5.164272,-0.28003861419803787963.00,-5.501277,3.5242648,0.32621,-8.373228,5.101312,-0.189863821419803787963.00,-4.929063,4.1341877,0.10654198,-8.364069,5.117989,-0.137677121419803787982.00,-4.296395,4.6920366,-0.08319851,-8.300399,5.2210593,-0.119658651419803787983.00,-3.8426938,5.146935,-0.24121583,-8.1747,5.4152794,-0.139441791419803787990.00,-3.7493198,5.3223104,-0.47524905,-8.003371,5.6646285,-0.168626381419803788038.00,-4.156933,5.115212,-0.89543146,-7.82217,5.910844,-0.214407891419803788039.00,-5.1200004,4.6776714,-1.323395,-7.683549,6.0859847,-0.306976881419803788039.00,-6.0160303,4.298789,-1.5472529,-7.6329937,6.140981,-0.442910941419803788040.00,-6.3769565,4.063559,-1.5682021,-7.659513,6.0957766,-0.58631521419803788040.00,-6.6983776,3.738546,-1.620276,-7.709253,6.0177093,-0.72456751419803788056.00,-7.4627266,3.3087866,-1.8968062,-7.785657,5.9030094,-0.84166191419803788058.00,-8.422802,2.7605145,-2.6180596,-7.9113526,5.711458,-0.97986391419803788077.00,-9.621698,2.2768857,-3.2399535,-8.084392,5.4212728,-1.19280461419803788090.00,-11.404779,1.6807296,-4.4184995,-8.288063,5.0397468,-1.44200271419803788091.00,-13.52724,0.6853402,-6.4924765,-8.513807,4.5381455,-1.75803791419803788112.00,-15.584457,-0.54288524,-7.6201453,-8.722848,3.901916,-2.203941419803788113.00,-17.922995,-1.632247,-6.344036,-8.909858,3.1559706,-2.61241321419803788118.00,-19.549255,-1.9153614,-4.6459484,-9.103545,2.4006073,-2.74462681419803788137.00,-16.920422,-0.36391866,-4.286818,-9.276543,1.7664012,-2.64499621419803788139.00,-12.834118,0.6254852,-4.7081976,-9.347836,1.461275,-2.57935791419803788161.00,-10.893618,0.21547815,-3.3123782,-9.33482,1.3772036,-2.67112261419803788162.00,-10.180744,0.6619968,0.86490536,-9.327618,1.279808,-2.74372891419803788170.00,-11.055226,3.0945058,4.9398365,-9.40636,1.2458565,-2.4776271419803788197.00,-11.872248,5.257068,9.282919,-9.521457,1.3964181,-1.88739841419803788199.00,-11.866262,8.334216,10.153211,-9.6167555,1.7092515,-0.875699761419803788200.00,-11.066,11.979987,9.936536,-9.543363,2.2510169,0.16597851419803788210.00,-10.527904,10.257957,-6.3488245,-9.279356,3.0110981,0.99861591419803788237.00,-8.50181,7.5686703,-16.581642,-9.1483755,3.5199406,0.296041041419803788238.00,-4.984728,7.654263,-14.751275,-8.975112,3.760572,-1.21485221419803788239.00,-4.441244,6.9850836,-3.5523968,-8.582631,4.014391,-2.52853781419803788265.00,-5.033809,6.5750766,1.5478514,-8.372447,4.3800344,-2.624471419803788266.00,-5.0667295,5.9184666,4.3089647,-8.32606,4.7395425,-2.0937681419803788272.00,-5.0745106,4.6920366,4.4639893,-8.28784,5.0401254,-1.44195531419803788297.00,-5.1265845,3.9043443,3.8175547,-8.255535,5.2075367,-0.94767721419803788298.00,-5.4282537,3.6661212,3.5924997,-8.246292,5.2784185,-0.554398541419803788299.00,-6.0543375,4.040814,3.8163576,-8.245728,5.306018,-0.15668461419803788309.00,-7.025785,4.701015,4.061165,-8.230426,5.3264604,0.243514751419803788325.00,-8.082825,5.342661,3.952827,-8.194778,5.3431125,0.68348441419803788341.00,-8.982447,5.8334723,3.5619736,-8.149584,5.347427,1.0768911419803788341.00,-9.959281,5.9843073,3.1914709,-8.114958,5.3390136,1.34639761419803788354.00,-10.251971,6.017826,2.741361,-8.116111,5.296303,1.49944371419803788358.00,-10.123283,5.708974,2.1883004,-8.130996,5.2489123,1.58310511419803788372.00,-9.792285,5.1840453,1.7106571,-8.16343,5.1950145,1.59393331419803788388.00,-9.458294,4.548983,1.2162545,-8.211941,5.1258044,1.56861011419803788390.00,-9.223662,3.810372,0.7140707,-8.280007,5.0330315,1.51012641419803788405.00,-8.954913,3.0585926,0.23523031,-8.370572,4.90809,1.41934961419803788410.00,-8.542512,2.3834279,-0.2885013,-8.478767,4.7531614,1.299381419803788421.00,-8.181585,1.9363106,-0.7757214,-8.594502,4.582227,1.14373341419803788440.00,-8.002021,1.70946,-1.0576386,-8.70875,4.4036064,0.967639741419803788441.00,-7.905654,1.5867572,-1.252766,-8.815796,4.2252502,0.774202171419803788457.00,-7.969699,1.6430209,-1.3174095,-8.912706,4.0494275,0.57983521419803788458.00,-8.077438,1.8088194,-1.0833763,-8.995259,3.8854752,0.398475021419803788472.00,-8.087015,1.9351135,-0.7032967,-9.061481,3.740338,0.264291581419803788485.00,-8.191761,1.988983,-0.24779987,-9.11396,3.6151168,0.192440391419803788490.00,-8.33242,2.0207062,0.18016368,-9.158876,3.5001662,0.185008781419803788504.00,-8.328829,2.1068976,0.3824737,-9.199645,3.3901787,0.208835651419803788510.00,-8.10138,2.2643163,0.40162733,-9.232508,3.2958057,0.26242931419803788523.00,-7.9182234,2.456451,0.30406362,-9.253351,3.2333958,0.301753581419803788539.00,-7.7614036,2.5737667,0.077213004,-9.26336,3.2033048,0.315216871419803788539.00,-7.6943655,2.6515784,-0.28191724,-9.267498,3.1934366,0.292989851419803788557.00,-7.736264,2.718616,-0.5374983,-9.268617,3.1956847,0.2251971419803788573.00,-7.8266454,2.837129,-0.61650693,-9.268587,3.200602,0.140846981419803788573.00,-7.8589673,3.071761,-0.61530983,-9.264755,3.2144136,0.0472428131419803788591.00,-7.9990277,3.3620577,-0.5303157,-9.253606,3.245829,0.0759516061419803788591.00,-8.146272,3.7020345,-0.40462008,-9.241615,3.278971,0.1061322241419803788608.00,-8.417415,3.9827545,-0.23044191,-9.228272,3.315034,0.141228681419803788622.00,-8.635287,4.156334,-0.001197101,-9.213913,3.3528574,0.180361841419803788623.00,-8.769362,4.2305546,0.2657564,-9.19946,3.389592,0.225742351419803788642.00,-8.865729,4.1545386,0.4973954,-9.185461,3.4234178,0.27907591419803788646.00,-8.791509,3.9881415,0.6901286,-9.1725025,3.452461,0.340720151419803788658.00,-8.670003,3.867833,0.78649527,-9.160048,3.478082,0.408504251419803788659.00,-8.734647,3.8109705,0.7846996,-9.146932,3.5036457,0.478028451419803788672.00,-8.878897,3.674501,0.6422446,-9.132633,3.5312157,0.54400871419803788686.00,-9.099762,3.5218706,0.39803603,-9.1188755,3.5571811,0.602442741419803788690.00,-9.446322,3.5009215,0.21188685,-9.105728,3.5825763,0.64902391419803788706.00,-9.813833,3.4691982,0.077811554,-9.093725,3.6070538,0.680978541419803788719.00,-9.901221,3.3363202,0.04070143,-9.083384,3.6294117,0.69994981419803788720.00,-9.782708,3.1615434,0.04249708,-9.073923,3.6503499,0.713624661419803788740.00,-9.698911,2.9825768,-0.027533319,-9.064591,3.670946,0.72646781419803788741.00,-9.559449,2.870648,-0.17118542,-9.055963,3.6903632,0.73563891419803788763.00,-9.424775,2.831742,-0.3573346,-9.0468235,3.711499,0.74171451419803788764.00,-10.0269165,3.0352492,-0.5189432,-9.037679,3.7340546,0.74000181419803788771.00,-11.079767,3.4991257,-0.99778354,-9.030078,3.7549949,0.726718541419803788802.00,-12.02428,3.7912183,-3.6882677,-9.025869,3.7715034,0.692700561419803788803.00,-11.886613,3.791817,-10.83496,-9.031308,3.7771764,0.5820641419803788803.00,-10.65719,3.8468835,-5.422867,-9.048824,3.7727735,0.235223311419803788836.00,-10.864887,3.994127,15.890317,-9.051714,3.771139,0.124099841419803788836.00,-10.861895,1.4161704,-2.9909565,-9.045555,3.7234304,0.69597271419803788837.00,-10.484209,2.1505916,-4.5274353,-9.069609,3.640645,0.811347371419803788839.00,-10.248979,3.5649664,-2.3624785,-9.09471,3.5465963,0.93716221419803788856.00,-10.90918,4.5501804,-1.299453,-9.150711,3.453883,0.711008371419803788870.00,-12.506113,5.187038,-0.7164649,-9.218042,3.3364632,0.257121831419803788870.00,-13.626599,6.459556,-1.1240777,-9.272307,3.1914644,-0.0961035861419803788890.00,-13.600263,8.1402855,-1.834557,-9.321534,3.021499,-0.387196061419803788890.00,-13.508684,9.3421755,-1.3736732,-9.357655,2.86386,-0.63482881419803788909.00,-13.295002,9.981427,0.60812724,-9.380402,2.736731,-0.82991941419803788911.00,-12.938865,9.442732,1.7866731,-9.399153,2.6388657,-0.9288241419803788920.00,-11.623251,7.6291237,-1.359308,-9.423859,2.5443137,-0.942199051419803788943.00,-9.4217825,6.6187706,-1.6478093,-9.450188,2.4273891,-0.98597561419803788943.00,-7.521983,6.3607955,-0.19393034,-9.471696,2.3021488,-1.07585171419803788951.00,-6.7773867,6.389526,0.9271546,-9.481953,2.197946,-1.19666541419803788979.00,-6.4505777,6.4709287,1.3503298,-9.4781475,2.1235292,-1.35121181419803788980.00,-5.8149176,6.467337,1.0187328,-9.4732,2.0679574,-1.46712481419803788980.00,-5.3085437,5.9687448,0.17896658,-9.469198,2.0176494,-1.56005681419803789014.00,-5.3965306,5.0463786,-0.89423436,-9.463742,1.9631755,-1.65948691419803789015.00,-5.439626,4.1611223,-1.5873557,-9.456875,1.8979671,-1.770771419803789016.00,-5.317522,3.2585084,-1.4077905,-9.449244,1.8249116,-1.88464881419803789020.00,-5.276222,2.4642322,-0.86490536,-9.44434,1.748308,-1.9794531419803789045.00,-5.66947,1.8046296,-0.50517654,-9.444751,1.6768326,-2.03845931419803789046.00,-6.071097,1.2090719,-0.10414778,-9.449899,1.6113434,-2.06722261419803789051.00,-6.457162,0.89064306,0.48123455,-9.45914,1.5453234,-2.07533741419803789079.00,-6.3907228,1.1893197,0.57281274,-9.472665,1.4766315,-2.06362371419803789079.00,-5.990891,1.8321629,0.17178397,-9.487678,1.4110695,-2.04040931419803789080.00,-5.6018333,2.333748,-0.107140526,-9.500981,1.3542901,-2.01684071419803789091.00,-5.282806,2.930503,-0.0724246,-9.511025,1.3092041,-1.99918651419803789119.00,-4.931457,3.5984852,0.29149407,-9.515195,1.2797234,-1.99844881419803789124.00,-4.619014,4.23235,0.801459,-9.514087,1.2692785,-2.01035141419803789129.00,-4.325125,4.771045,1.1402385,-9.510286,1.2800798,-2.02144271419803789171.00,-4.2197804,5.057751,1.1875241,-9.507042,1.3042748,-2.02123761419803789171.00,-4.5801077,4.933253,0.86610246,-9.502866,1.3454145,-2.0139031419803789172.00,-5.146935,4.633379,0.28909984,-9.500031,1.3943485,-1.99390131419803789172.00,-5.5563436,4.4568067,-0.060453594,-9.499163,1.4441787,-1.96230661419803789173.00,-5.793968,4.368221,-0.2741361,-9.50028,1.4984642,-1.91564191419803789188.00,-5.9878983,4.246715,-0.2717419,-9.501571,1.5658344,-1.85437991419803789191.00,-6.2763996,4.076727,0.04369418,-9.501481,1.6493905,-1.78094771419803789210.00,-7.0006456,3.78643,0.7368156,-9.501463,1.7400444,-1.69258951419803789211.00,-8.018182,3.4290953,1.0055647,-9.500036,1.8436917,-1.58761351419803789220.00,-9.219472,3.0538042,0.016759412,-9.499089,1.9544203,-1.45531111419803789241.00,-10.835558,2.6809072,-3.032855,-9.49647,2.066371,-1.31056651419803789242.00,-13.490129,1.8249803,-7.924209,-9.48772,2.1717947,-1.19868721419803789260.00,-16.959328,-0.46028528,-11.085154,-9.472942,2.2356062,-1.19826291419803789261.00,-19.575592,-4.395156,-9.317635,-9.4643,2.2030795,-1.32056181419803789271.00,-19.60911,-7.872135,-6.187216,-9.473558,2.2039,-1.25096051419803789295.00,-19.217659,-7.1329255,-4.036624,-9.5045805,2.0920463,-1.20692731419803789295.00,-14.129381,-3.9803603,-0.5093664,-9.487106,0.26557255,-2.46873351419803789299.00,-10.18254,-1.8034325,4.0144777,-9.560736,-0.054877546,-2.18167421419803789325.00,-8.097789,-0.30526072,7.143699,-9.651739,-0.12549773,-1.73163561419803789325.00,-6.9090676,1.8722657,7.885902,-9.74094,-0.12482377,-1.12644671419803789331.00,-8.031948,3.9318779,8.210915,-9.798734,0.040589932,-0.391906141419803789340.00,-10.101735,6.59423,7.548918,-9.791618,0.38978773,0.377701671419803789365.00,-11.538257,10.728417,4.9919105,-9.701188,0.9644281,1.0617111419803789366.00,-12.694656,16.754623,-2.4420857,-9.5292425,1.8449905,1.39997381419803789371.00,-13.363835,16.015413,-13.382989,-9.261222,3.0697086,0.98846041419803789394.00,-8.763377,11.979388,-14.698004,-9.253981,3.1178944,0.901641371419803789395.00,-4.9027267,8.817844,-9.485229,-8.640107,4.384775,-1.51415661419803789400.00,-4.5232453,6.187216,0.1376666,-8.337187,4.6704426,-2.20196531419803789425.00,-4.4143095,5.1182046,4.3957543,-8.248966,4.933019,-1.94687061419803789426.00,-4.619014,4.180875,4.7405195,-8.221287,5.1801634,-1.32164141419803789431.00,-5.056554,3.482965,4.0120835,-8.194989,5.328087,-0.78994511419803789439.00,-5.5910597,3.7008374,3.3925838,-8.194964,5.371232,-0.403484941419803789462.00,-6.271611,4.5801077,3.2968156,-8.195484,5.385218,-0.0620621961419803789463.00,-7.2310877,5.744887,3.3183637,-8.156116,5.4381866,0.27255731419803789471.00,-8.264186,6.6864066,3.1555579,-8.077951,5.526166,0.61529111419803789497.00,-9.391256,7.0341644,2.7850552,-7.99075,5.6132026,0.90016141419803789498.00,-10.404003,6.615179,2.2134395,-7.944962,5.646194,1.08095751419803789499.00,-10.721235,5.8268886,1.6316484,-7.973607,5.590905,1.15489421419803789523.00,-10.148422,4.953005,1.2156559,-8.052597,5.4768066,1.15355741419803789523.00,-9.419987,4.198831,0.95588505,-8.139434,5.3539705,1.12027841419803789542.00,-9.164406,3.4261026,0.70509243,-8.226649,5.2243915,1.09470731419803789543.00,-9.122507,2.6725276,0.36870706,-8.331744,5.064671,1.049541419803789551.00,-9.041702,2.0015526,0.025139118,-8.459541,4.8624697,0.98129131419803789568.00,-8.751406,1.5280992,-0.2657564,-8.599468,4.629411,0.88774731419803789571.00,-8.345589,1.292869,-0.4830302,-8.734047,4.390718,0.780021671419803789586.00,-8.14687,1.1988965,-0.62129533,-8.853136,4.164914,0.667719841419803789610.00,-8.152257,1.1569979,-0.59136784,-8.957761,3.9525223,0.553594231419803789611.00,-8.245032,1.1522095,-0.38486794,-9.051896,3.7444928,0.460799661419803789611.00,-8.208521,1.3425486,0.049679685,-9.136064,3.5413754,0.401736651419803789620.00,-8.128315,1.5514427,0.48243165,-9.200824,3.3696992,0.40042731419803789638.00,-8.159439,1.6891093,0.85293436,-9.247688,3.2324731,0.449212671419803789651.00,-8.1079645,1.8537107,1.0815806,-9.283091,3.1168818,0.528835061419803789652.00,-7.8667483,2.082357,1.1390414,-9.306214,3.029893,0.620090661419803789668.00,-7.6967597,2.319383,0.93373865,-9.317475,2.9778094,0.69835641419803789671.00,-7.6452847,2.475006,0.64823014,-9.319573,2.960323,0.74324761419803789685.00,-7.754221,2.4983494,0.3321955,-9.319128,2.9620416,0.74199031419803789706.00,-7.958925,2.469619,0.090979666,-9.322127,2.9626873,0.700573441419803789706.00,-8.146272,2.4947581,-0.093373865,-9.328986,2.9550843,0.63864631419803789717.00,-8.347384,2.6994624,-0.20590134,-9.33603,2.947406,0.56721951419803789719.00,-8.385692,2.9640217,-0.27952304,-9.33721,2.957198,0.49179571419803789734.00,-8.602366,3.1232362,-0.38067806,-9.328534,2.9955082,0.41925651419803789739.00,-9.052477,3.3554738,-0.5009867,-9.317662,3.0384085,0.34588441419803789751.00,-9.187749,3.590704,-0.60094464,-9.305433,3.0834045,0.268192081419803789769.00,-8.802881,3.603872,-0.6386533,-9.286664,3.1452076,0.189586181419803789771.00,-8.348581,3.1352072,-0.65660983,-9.263945,3.2150764,0.1140285361419803789783.00,-8.384495,3.020884,-0.6183026,-9.254896,3.242828,0.0367027151419803789808.00,-8.583812,3.0520086,-0.51714754,-9.250845,3.2544734,-0.0260538941419803789809.00,-8.838196,3.1310172,-0.43514615,-9.248065,3.261561,-0.076788641419803789811.00,-9.166202,3.1711202,-0.36750996,-9.245487,3.2677622,-0.114367551419803789822.00,-9.481637,3.2495303,-0.31124622,-9.245709,3.2661424,-0.139874341419803789842.00,-9.8754835,3.1920695,-0.22385786,-9.247287,3.260816,-0.158646841419803789843.00,-10.053851,3.128623,-0.10474633,-9.255351,3.237472,-0.166297061419803789851.00,-9.961675,3.0424318,-0.001197101,-9.266989,3.204564,-0.155140881419803789867.00,-9.873688,2.8688521,-0.004788403,-9.279347,3.1695573,-0.134216161419803789871.00,-9.780912,2.6192567,-0.02873042,-9.294602,3.1253319,-0.114379831419803789885.00,-9.552266,2.3959973,-0.11492168,-9.314829,3.0650017,-0.10057811419803789909.00,-9.409213,2.3145945,-0.26994625,-9.3372345,2.996061,-0.1002507661419803789910.00,-9.420585,2.2110453,-0.38067806,-9.357289,2.9322395,-0.116166711419803789911.00,-9.600749,2.1523874,-0.3597288,-9.377433,2.8661358,-0.139264091419803789920.00,-10.313024,2.4516625,-0.4177882,-9.397964,2.797066,-0.158396081419803789947.00,-11.407773,2.7257986,-0.55126494,-9.413116,2.7445254,-0.176704481419803789948.00,-12.072164,2.8107927,-0.89423436,-9.426995,2.6948757,-0.199506671419803789951.00,-12.412739,2.8191724,-2.689287,-9.44157,2.6390543,-0.250074241419803789984.00,-12.33792,2.992752,-5.856816,-9.450836,2.5768027,-0.460633671419803789985.00,-11.471219,3.5356374,-2.2529438,-9.427824,2.5352218,-0.92692841419803789986.00,-11.018715,4.010886,14.818912,-9.411247,2.561965,-1.01742941419803790010.00,-9.619903,2.2942438,-2.7485435,-9.432386,2.6451833,0.451108871419803790011.00,-9.033323,2.1033063,-4.584896,-9.45392,2.5937724,0.257189071419803790012.00,-9.169792,3.0693667,-1.5903485,-9.476018,2.520528,-0.149644031419803790020.00,-9.560646,4.164714,-0.5674258,-9.45675,2.5273266,-0.594050771419803790055.00,-10.193314,5.189432,-1.34195,-9.4081745,2.6350353,-0.844532431419803790055.00,-11.018116,6.090849,-2.570774,-9.357464,2.810193,-0.843251171419803790056.00,-11.741165,6.8342485,-3.0603883,-9.287573,2.9956064,-0.96834591419803790079.00,-12.16853,7.297527,-2.4181437,-9.20242,3.1912532,-1.14093181419803790080.00,-12.344504,7.630321,-0.9223662,-9.116234,3.3925996,-1.24696761419803790081.00,-12.357074,7.7105265,0.8738836,-9.0453825,3.5995197,-1.18106451419803790119.00,-12.062587,7.390302,2.1649568,-8.993013,3.7955625,-0.94329271419803790120.00,-11.362283,6.625355,2.5025394,-8.953799,3.9499288,-0.63082251419803790121.00,-10.474632,5.639542,1.4107834,-8.917823,4.0646095,-0.34897421419803790122.00,-9.065046,5.0637364,0.3890578,-8.893806,4.126902,-0.198163451419803790145.00,-7.9756846,4.9655743,0.52253455,-8.865893,4.1869097,-0.190042691419803790145.00,-7.5686703,4.945224,0.89603,-8.824965,4.272431,-0.19173021419803790152.00,-6.8893156,4.8943467,0.842759,-8.779894,4.366346,-0.137467281419803790169.00,-6.5032506,4.3400893,0.23403321,-8.728221,4.4705467,-0.0524018031419803790185.00,-6.3129115,3.413533,-0.8050503,-8.69245,4.5400085,-0.0061912561419803790186.00,-6.2608376,2.3289597,-1.8950106,-8.689419,4.5451508,-0.0774171419803790206.00,-6.4601545,1.2593501,-2.4774003,-8.72834,4.4641914,-0.23977791419803790207.00,-6.9611416,0.40102878,-1.9722236,-8.80791,4.2872186,-0.459195731419803790212.00,-7.4974427,-0.13108255,-1.0169371,-8.924039,4.019554,-0.612476651419803790220.00,-7.439383,0.41479546,0.2088941,-9.064002,3.688281,-0.640984951419803790237.00,-6.8198833,1.6077064,0.44472298,-9.171015,3.430773,-0.541007761419803790256.00,-6.1519012,2.4875755,0.4321534,-9.215072,3.3275685,-0.424424861419803790261.00,-5.66947,3.1358056,0.46686932,-9.209323,3.3530936,-0.339908841419803790263.00,-5.180454,3.6703112,0.47524905,-9.168536,3.4683177,-0.281271931419803790273.00,-4.6591167,4.1120415,0.39743748,-9.097074,3.6554363,-0.226810281419803790301.00,-4.489128,4.361038,0.18375498,-8.99517,3.9024217,-0.1686411419803790302.00,-4.711789,4.380192,-0.15741876,-8.87527,4.1693645,-0.127948341419803790303.00,-5.0541596,4.131195,-0.44711718,-8.762644,4.4012856,-0.123068161419803790319.00,-5.369596,3.8714242,-0.5243302,-8.672539,4.5749106,-0.166299981419803790320.00,-5.7239375,3.667917,-0.42796355,-8.609407,4.691179,-0.203270421419803790336.00,-6.054936,3.54282,-0.30945057,-8.571263,4.7597213,-0.221074951419803790351.00,-6.201581,3.470994,-0.25498247,-8.553683,4.7912273,-0.221437351419803790352.00,-6.293758,3.4159272,-0.23283611,-8.546545,4.80418,-0.216319281419803790366.00,-6.432023,3.3638535,-0.23642741,-8.549113,4.799899,-0.209828751419803790383.00,-6.6109896,3.2968156,-0.24301147,-8.554959,4.7894773,-0.209749251419803790384.00,-7.023989,3.1555579,-0.2753332,-8.569433,4.7635236,-0.209797191419803790401.00,-7.73387,2.9233203,-0.53330845,-8.602898,4.7026243,-0.214155961419803790402.00,-8.996213,2.6366146,-1.3239936,-8.665477,4.5845118,-0.249283391419803790417.00,-10.432734,2.2080526,-3.165733,-8.765002,4.3820386,-0.377947781419803790421.00,-12.170326,1.2605472,-5.755062,-8.886255,4.0872455,-0.70658531419803790434.00,-14.750677,-0.75956047,-8.14687,-9.013339,3.6510544,-1.2648821419803790450.00,-17.990032,-3.6553473,-8.268375,-9.142898,2.973271,-1.93326231419803790452.00,-19.60911,-6.6971807,-6.95336,-9.288085,2.0425186,-2.39373951419803790468.00,-19.29547,-7.3106947,-6.1542954,-9.410314,0.98778236,-2.57695771419803790485.00,-15.33965,-5.49589,-4.9799395,-9.451827,0.11894582,-2.61135581419803790486.00,-11.53706,-3.4237084,-1.0989386,-9.445555,-0.35834554,-2.61217761419803790502.00,-9.530719,-1.0534488,2.9364884,-9.4732,-0.585062,-2.46710091419803790502.00,-9.729437,2.3540988,6.736685,-9.565314,-0.57609075,-2.08405141419803790520.00,-11.079168,4.8027687,9.968858,-9.691821,-0.3103361,-1.46379021419803790521.00,-11.657368,7.9236107,9.461287,-9.792075,0.13430691,-0.517318841419803790535.00,-10.852917,11.253346,6.517017,-9.764731,0.82266825,0.379019771419803790550.00,-9.721058,15.787965,-7.3166804,-9.607388,1.738695,0.919468161419803790552.00,-9.119514,16.54932,-19.608511,-9.363846,2.9086437,0.169017431419803790568.00,-9.572617,10.996569,-12.628816,-9.347313,2.965978,0.033247021419803790585.00,-9.24521,7.04434,-1.5436616,-8.5276,4.1771293,-2.4499021419803790586.00,-6.7588315,5.9567738,3.4111388,-8.498389,4.305104,-2.3267661419803790601.00,-5.6682725,4.6962266,5.2899885,-8.521601,4.5559998,-1.67200151419803790602.00,-5.6509147,3.5924997,4.867412,-8.505642,4.7665515,-1.05092241419803790617.00,-5.7335143,3.3381157,3.945046,-8.507524,4.838274,-0.61929921419803790632.00,-6.232107,3.369839,3.626617,-8.517501,4.854573,-0.235987281419803790633.00,-6.943185,3.714604,3.5913026,-8.521878,4.8509316,0.128317181419803790650.00,-7.994838,4.136582,3.490746,-8.51102,4.84656,0.493757931419803790652.00,-9.20391,4.358644,3.2674868,-8.496856,4.827508,0.81793381419803790667.00,-10.357915,4.256292,2.741361,-8.501923,4.7697873,1.06622871419803790682.00,-10.878056,3.9971197,1.881244,-8.545297,4.6575036,1.20663561419803790682.00,-10.281899,3.6110547,0.6242881,-8.616659,4.519683,1.22313771419803790706.00,-9.006987,3.2237926,-0.55006784,-8.695259,4.395892,1.11309521419803790706.00,-8.09719,2.767697,-1.2539631,-8.760568,4.305853,0.93941441419803790712.00,-7.811083,2.307412,-1.4820108,-8.825854,4.21752,0.69800971419803790733.00,-7.827244,1.7651252,-1.4036007,-8.896473,4.0994306,0.466709761419803790734.00,-7.7847466,1.3000516,-1.0324994,-8.977749,3.9361804,0.27731881419803790753.00,-7.8487916,1.0336965,-0.57520694,-9.062408,3.7441843,0.155556471419803790754.00,-7.917625,1.0893618,-0.19632454,-9.143615,3.5431025,0.1055418551419803790767.00,-7.687183,1.3850456,0.32621,-9.213305,3.3581004,0.0923088641419803790784.00,-7.6770077,1.5873557,0.8912416,-9.258988,3.2268496,0.170207521419803790784.00,-7.8086886,1.6903064,1.2467805,-9.2901945,3.1254091,0.307369081419803790797.00,-7.8876977,1.7082629,1.4790181,-9.314933,3.0311599,0.463142421419803790802.00,-7.8595657,1.7262194,1.6370354,-9.335771,2.938417,0.616012451419803790813.00,-7.8517847,1.8381484,1.5855601,-9.350221,2.8570998,0.7620571419803790830.00,-7.9331875,2.0919337,1.3664906,-9.359995,2.7912996,0.87723761419803790832.00,-8.057087,2.3175871,0.94570965,-9.363598,2.7566433,0.94569041419803790855.00,-8.098388,2.5031378,0.4985925,-9.365767,2.74809,0.949125051419803790855.00,-8.131308,2.5803509,0.047285482,-9.366939,2.7608619,0.89918111419803790861.00,-8.220491,2.6222494,-0.40162733,-9.369473,2.780416,0.807874741419803790890.00,-8.293514,2.7329812,-0.7224504,-9.373448,2.80087,0.6811511419803790891.00,-8.544906,2.7934349,-0.85473,-9.373917,2.830313,0.537948371419803790893.00,-8.786121,2.859874,-0.8511387,-9.3733,2.8559034,0.394282821419803790903.00,-8.841188,2.9454668,-0.7356185,-9.370371,2.879389,0.275057321419803790925.00,-8.835203,3.0053217,-0.6691794,-9.36313,2.9099622,0.185263051419803790926.00,-8.774749,3.084929,-0.58418524,-9.353532,2.9443684,0.1118394961419803790933.00,-8.701127,3.1789012,-0.52492875,-9.34156,2.9838102,0.0501426271419803790962.00,-8.738836,3.2237926,-0.53211135,-9.327426,3.0281131,-0.0084644611419803790964.00,-8.713099,3.2620997,-0.45968673,-9.313179,3.0711243,-0.0575286451419803790964.00,-8.734647,3.323152,-0.3824737,-9.298502,3.1141272,-0.102378431419803790990.00,-8.759187,3.4003649,-0.25498247,-9.28336,3.157697,-0.136293561419803790991.00,-8.81964,3.5212722,-0.11671733,-9.267608,3.2028906,-0.152767141419803790993.00,-8.91481,3.650559,0.1376666,-9.250365,3.2524517,-0.150635971419803791001.00,-9.115923,3.731962,0.46567222,-9.232206,3.304927,-0.119285141419803791028.00,-9.414599,3.7463272,0.8595184,-9.216016,3.3515024,-0.053731591419803791029.00,-9.7007065,3.654749,1.3174095,-9.204865,3.3820925,0.048258131419803791033.00,-9.877279,3.4452562,1.7022774,-9.199946,3.3905842,0.187867091419803791055.00,-9.952697,3.1148565,1.9476831,-9.201622,3.3729327,0.351954671419803791055.00,-9.981427,2.7724855,1.922544,-9.21102,3.3250508,0.52108551419803791061.00,-9.970653,2.4600422,1.6017209,-9.227587,3.2528489,0.66411861419803791087.00,-9.824008,2.1859062,1.0815806,-9.25267,3.1607814,0.75361471419803791088.00,-9.882666,1.7088615,0.1316811,-9.284059,3.0612745,0.777989271419803791093.00,-10.834361,1.8381484,-0.12569559,-9.333458,2.9278653,0.696102441419803791101.00,-11.6908865,1.9668367,-0.39564183,-9.382292,2.7917874,0.59071141419803791124.00,-12.29662,2.0177135,-0.7691373,-9.427823,2.6577752,0.47198391419803791125.00,-12.600683,2.1158757,-1.6573862,-9.469172,2.5283556,0.335564081419803791132.00,-12.489952,2.6964695,-10.368689,-9.503773,2.4146323,0.13519291419803791159.00,-11.100717,3.3321302,-15.735292,-9.481498,2.3635874,-0.82768891419803791161.00,-10.727819,3.6942532,13.757083,-9.280461,2.3584695,-2.11685251419803791161.00,-10.839748,1.0606314,3.6487634,-9.46157,2.480483,-0.704471051419803791194.00,-10.195109,0.60932434,-8.034343,-9.526889,2.3154695,-0.217665431419803791194.00,-9.624691,1.8842367,-3.8977604,-9.562286,2.082496,-0.629502061419803791195.00,-10.030508,3.3195608,-1.8315643,-9.5530815,1.9671257,-1.01952021419803791201.00,-11.24377,4.3065705,-1.7489643,-9.46198,2.0249634,-1.59399941419803791217.00,-12.543821,5.1930237,-2.0494366,-9.41328,2.1616411,-1.69935831419803791231.00,-13.27944,6.1926026,-2.3546975,-9.389011,2.3258936,-1.61464481419803791232.00,-13.608643,7.167641,-2.3403323,-9.342927,2.520954,-1.58900121419803791248.00,-13.480553,7.8589673,-1.6783354,-9.27298,2.7598014,-1.60178521419803791264.00,-12.703035,8.207323,-0.5758055,-9.19802,3.0326965,-1.53934071419803791265.00,-11.632229,7.824251,0.78888947,-9.121441,3.3229725,-1.38837161419803791283.00,-10.399215,6.585252,2.332551,-9.060003,3.5732331,-1.14836751419803791284.00,-9.725247,5.2462945,0.5386954,-9.01791,3.761884,-0.834225541419803791302.00,-8.850166,5.1505265,-1.2719196,-8.993577,3.8497214,-0.682371441419803791303.00,-7.3328414,5.971139,-0.39743748,-8.952897,3.9333448,-0.738131341419803791312.00,-6.3368535,6.0998273,0.6135142,-8.86608,4.1152463,-0.792326451419803791335.00,-5.7909756,5.6467247,0.9163807,-8.759164,4.3432217,-0.76410281419803791337.00,-5.6425347,4.575918,0.5201403,-8.667731,4.5429306,-0.63452131419803791353.00,-5.5623293,3.3758245,-0.27114335,-8.612774,4.6583643,-0.538673161419803791354.00,-5.3941364,2.3133974,-1.0869676,-8.604801,4.676529,-0.50778411419803791361.00,-5.717354,1.2856863,-1.4652514,-8.631042,4.6201,-0.57460841419803791387.00,-6.531382,0.32441434,-0.9307459,-8.700526,4.472966,-0.68105861419803791387.00,-7.08564,0.23942018,0.026934769,-8.828311,4.208912,-0.71858781419803791393.00,-6.96593,1.1988965,0.79128367,-8.96852,3.91482,-0.6404771419803791402.00,-6.537368,2.212841,1.1031284,-9.055598,3.7320864,-0.487945441419803791438.00,-6.196194,2.8987796,1.5837644,-9.084547,3.6806479,-0.306997931419803791438.00,-5.170877,3.4979286,1.5676036,-9.073709,3.7187984,-0.093602411419803791439.00,-3.8935704,3.7014358,0.47225627,-9.013298,3.8629544,0.091920161419803791442.00,-3.7660792,3.5446155,-0.1945289,-8.9136505,4.086519,0.132574251419803791471.00,-4.6261964,3.2118216,-0.22924481,-8.817681,4.2907076,0.0934539441419803791472.00,-5.4779334,3.0621839,0.2100912,-8.766859,4.394158,0.0626689341419803791473.00,-5.3857565,3.2597055,0.26635495,-8.749911,4.42726,0.0938274561419803791481.00,-5.6670756,3.2716765,-0.008379706,-8.716556,4.4914722,0.136795071419803791503.00,-6.1764417,3.1735144,-0.40102878,-8.688044,4.5463405,0.138234171419803791504.00,-6.5098343,3.103484,-0.58897364,-8.683324,4.5566053,0.087301271419803791515.00,-6.5990186,3.1244333,-0.64583594,-8.694767,4.535543,0.0162935481419803791537.00,-6.8683662,3.027468,-0.6835446,-8.705026,4.5155063,-0.0559235481419803791538.00,-7.2729864,2.8263552,-0.682946,-8.729223,4.467018,-0.129753921419803791542.00,-7.7224975,2.397793,-0.6691794,-8.768927,4.3860626,-0.196910231419803791572.00,-8.591593,1.8034325,-0.9343372,-8.83747,4.2433996,-0.25118661419803791573.00,-10.036493,1.412579,-1.7130513,-8.944506,4.007424,-0.32674541419803791573.00,-11.926117,1.1839328,-3.333926,-9.074142,3.6873033,-0.483888271419803791581.00,-13.756484,0.10414778,-6.4152637,-9.198641,3.3040283,-0.79924431419803791613.00,-15.752051,-2.0284874,-9.264962,-9.296072,2.7992914,-1.38471721419803791614.00,-18.022951,-4.5723267,-8.53054,-9.345645,2.0928667,-2.1093141419803791615.00,-19.257761,-6.143522,-7.429806,-9.388134,1.2366642,-2.55029371419803791645.00,-16.836624,-4.361038,-6.463746,-9.408279,0.41542146,-2.73534731419803791646.00,-12.460024,-0.90141696,-4.5926776,-9.39276,-0.0597887,-2.81830981419803791646.00,-9.444528,1.1677719,-3.5751417,-9.375322,-0.12129501,-2.8738541419803791669.00,-8.20433,1.887828,-2.5222914,-9.345347,0.03748539,-2.97212481419803791669.00,-9.564238,3.3387144,1.1773487,-9.326801,0.21753976,-3.0222331419803791673.00,-11.380837,4.7339354,4.7800236,-9.413904,0.5102762,-2.69970921419803791682.00,-13.432669,5.7017913,7.8086886,-9.551543,0.8767507,-2.04198461419803791707.00,-15.340249,8.245032,6.253655,-9.660948,1.2685218,-1.10786011419803791708.00,-15.20797,10.004171,-3.8510735,-9.633439,1.7937288,-0.387054031419803791714.00,-11.719617,8.327632,-9.570822,-9.498011,2.3591287,-0.62667351419803791742.00,-7.255628,6.5068417,-5.8029466,-9.32001,2.7302415,-1.36146781419803791743.00,-3.8564603,5.81791,-4.502895,-9.167942,2.987892,-1.78654091419803791743.00,-2.8754363,5.3157263,-3.4021606,-8.987345,3.2982266,-2.12595871419803791766.00,-3.9103298,4.7866077,2.4133554,-8.808404,3.653785,-2.28741651419803791766.00,-5.1223946,4.2341456,7.1963716,-8.764592,3.969788,-1.89553841419803791786.00,-6.1524997,3.793014,6.558317,-8.803211,4.1983757,-1.0234781419803791786.00,-6.6726403,3.9264908,4.891354,-8.8059025,4.3111353,-0.201399361419803791793.00,-7.2544312,4.498705,3.714604,-8.767454,4.378497,0.361837181419803791814.00,-8.204929,5.0212393,3.0172927,-8.699617,4.4701033,0.71079621419803791815.00,-9.287707,5.271434,2.6701334,-8.634579,4.5571504,0.920222761419803791830.00,-10.095152,5.185242,2.44448,-8.592271,4.6027412,1.07613171419803791833.00,-10.609905,4.723161,2.1505916,-8.581649,4.5935397,1.19377961419803791847.00,-10.620679,3.980959,1.769315,-8.608175,4.5243053,1.26504681419803791867.00,-10.355521,3.1495724,1.311424,-8.664949,4.4085507,1.28596931419803791869.00,-10.200497,2.272696,0.8403648,-8.745878,4.249531,1.27337921419803791880.00,-10.723031,1.1492168,0.6751649,-8.851171,4.0450926,1.21012281419803791882.00,-10.108319,0.29269117,1.1677719,-8.990178,3.750273,1.13249421419803791896.00,-8.558074,0.6003461,0.38845924,-9.119934,3.4278731,1.11664491419803791913.00,-8.308478,1.0696096,-1.2892777,-9.207431,3.2114146,1.03942671419803791914.00,-8.3312235,1.2012907,-2.5983074,-9.284266,3.0532186,0.806620961419803791930.00,-8.569447,1.1336545,-3.4650085,-9.351702,2.9150867,0.467253951419803791934.00,-9.077017,0.9600749,-3.527856,-9.410995,2.7566361,0.067280811419803791944.00,-8.938752,0.9307459,-2.7389667,-9.455262,2.5842862,-0.299746931419803791962.00,-8.678383,0.85532856,-1.5185224,-9.48414,2.4363952,-0.53426121419803791963.00,-8.6712,0.705691,-0.40282443,-9.512457,2.3068175,-0.60177171419803791978.00,-8.569447,0.7026982,0.374094,-9.548222,2.170009,-0.541246241419803791982.00,-8.369531,0.8912416,0.8678981,-9.582402,2.0439112,-0.412805141419803792005.00,-8.14687,1.2114661,1.1330559,-9.607419,1.9490886,-0.26256431419803792006.00,-7.9313917,1.5269021,1.103727,-9.620034,1.9016757,-0.094610711419803792014.00,-7.740454,1.7477672,0.79726917,-9.621398,1.89665,0.042557871419803792039.00,-7.433996,1.9614497,0.4950012,-9.616333,1.9185718,0.125043261419803792040.00,-7.5812397,1.9758149,0.17058687,-9.60627,1.9656299,0.16202071419803792043.00,-8.069656,1.9853917,-0.18136078,-9.598387,2.0040846,0.15807811419803792068.00,-8.175002,2.2661119,-0.4213795,-9.5929785,2.0325458,0.118010881419803792068.00,-8.152855,2.6354175,-0.5129577,-9.590909,2.0410414,0.137928471419803792074.00,-8.1480665,2.8760347,-0.42437226,-9.586112,2.0628278,0.14687341419803792082.00,-8.157643,3.0621839,-0.24540567,-9.579579,2.0916488,0.164489141419803792121.00,-8.306085,3.210026,-0.12150574,-9.569488,2.1341972,0.201240381419803792122.00,-8.327632,3.4302924,-0.130484,-9.55713,2.1832063,0.255499181419803792123.00,-8.741829,3.5811272,-0.0796072,-9.542509,2.238803,0.3141251419803792123.00,-9.077017,3.5811272,-0.0700304,-9.526324,2.2983956,0.370035081419803792164.00,-9.275736,3.5326445,-0.06284779,-9.510692,2.354568,0.41614221419803792166.00,-9.3182335,3.401562,-0.12150574,-9.495627,2.4079947,0.4528111419803792168.00,-9.185355,3.268684,-0.11552023,-9.481344,2.4594934,0.47477031419803792169.00,-9.222465,3.0597897,-0.020350715,-9.46742,2.511806,0.478745641419803792203.00,-9.434352,2.9574378,0.17058687,-9.455511,2.558702,0.465572861419803792203.00,-9.583391,2.895787,0.4189853,-9.443503,2.6050563,0.452019541419803792204.00,-9.640253,2.794632,0.6691794,-9.430879,2.652994,0.43652681419803792205.00,-9.630077,2.6396074,0.85652566,-9.41739,2.7021577,0.426042231419803792214.00,-9.747394,2.532467,1.021127,-9.404011,2.749137,0.420956881419803792230.00,-9.936536,2.4079683,1.0456676,-9.391341,2.7922232,0.420230331419803792248.00,-10.143634,2.280477,0.94570965,-9.380329,2.8290803,0.419679141419803792249.00,-10.346542,2.1260512,0.770933,-9.371127,2.8597488,0.417370861419803792270.00,-10.354323,1.8746599,0.61171854,-9.364395,2.88308,0.40784841419803792270.00,-10.454282,1.7711107,0.4902128,-9.360166,2.898829,0.39303781419803792274.00,-10.9822035,2.0254946,0.25917232,-9.357519,2.9097126,0.375266551419803792303.00,-11.799225,2.1894975,-0.46746787,-9.355923,2.9180398,0.349526551419803792304.00,-12.196063,2.136825,-2.5845408,-9.359589,2.9122956,0.29497781419803792305.00,-11.753136,2.047641,-15.333066,-9.368499,2.8937373,0.167071551419803792314.00,-9.088988,2.2373815,-14.872183,-9.370868,2.8377943,-0.55151691419803792332.00,-9.613917,3.3836055,15.2809925,-9.33054,2.8016346,-1.12350551419803792346.00,-10.354922,0.9223662,3.5380316,-9.387741,2.7984748,-0.45741471419803792346.00,-9.836577,0.6865373,-6.0118403,-9.427922,2.6986134,0.0465513241419803792360.00,-9.513959,1.7417817,-3.0023289,-9.465118,2.5556598,0.22476271419803792362.00,-10.146626,2.633622,-1.6238673,-9.505189,2.4072819,-0.163491351419803792378.00,-11.707047,3.6206315,-1.4634558,-9.524396,2.2368038,-0.67303021419803792382.00,-13.158532,4.647744,-1.9458874,-9.53106,2.0383313,-1.08373931419803792396.00,-14.459781,5.719748,-3.2549171,-9.529658,1.8360553,-1.4088551419803792411.00,-15.041573,6.8480153,-4.3502645,-9.511575,1.6568336,-1.71908011419803792428.00,-14.842255,7.3047094,-3.5404258,-9.4779215,1.5260812,-2.00261071419803792428.00,-11.28926,6.6726403,0.55365914,-9.449198,1.4351819,-2.19619851419803792446.00,-9.01417,5.849035,2.790442,-9.453694,1.3546345,-2.2277891419803792447.00,-8.628104,4.5459905,3.3105824,-9.486633,1.2715348,-2.13480141419803792462.00,-9.505579,4.2239704,-0.9235633,-9.526205,1.1975749,-1.99690631419803792463.00,-8.603564,5.2367177,-1.8992004,-9.559473,1.1272984,-1.87511711419803792478.00,-7.447763,6.4008985,-0.6943185,-9.577506,1.0637136,-1.81942611419803792495.00,-6.6864066,6.663662,0.23523031,-9.565531,1.0204124,-1.90519071419803792496.00,-6.408081,6.1195793,0.47764325,-9.530955,1.0001564,-2.0811021419803792510.00,-6.194997,5.333084,0.3250129,-9.502103,0.97514033,-2.22026131419803792514.00,-5.9250507,4.5663414,0.008379706,-9.479567,0.9362197,-2.33059531419803792533.00,-5.6000376,3.9073372,-0.33159694,-9.466732,0.8787018,-2.40401341419803792539.00,-5.4743423,3.2375593,-0.41479546,-9.457873,0.8122788,-2.4615551419803792543.00,-5.872977,2.569577,0.08020575,-9.452063,0.7481901,-2.5038171419803792586.00,-6.0920463,1.8860323,0.7799112,-9.451085,0.69477355,-2.5228351419803792587.00,-4.997896,1.5466543,0.374094,-9.45512,0.6446748,-2.52101611419803792589.00,-4.305373,1.1444284,-0.12749124,-9.4573555,0.61135757,-2.52092361419803792589.00,-4.681263,0.78649527,-0.98581254,-9.458388,0.59684944,-2.52052281419803792596.00,-6.23091,0.91578215,-0.91219085,-9.45771,0.58669573,-2.52544211419803792626.00,-7.0066314,1.5574282,-0.2645593,-9.462071,0.5640655,-2.51424621419803792626.00,-6.7690067,2.4103625,0.60693014,-9.476013,0.5340724,-2.46786711419803792627.00,-6.168062,3.1812954,1.1073183,-9.4944315,0.51714057,-2.39973831419803792653.00,-5.5886655,3.5368345,0.6931214,-9.511416,0.5162116,-2.33171271419803792654.00,-5.813122,3.3291376,-0.12569559,-9.52429,0.5382215,-2.27345631419803792654.00,-6.145916,3.128623,-0.65421563,-9.532767,0.57189447,-2.229281419803792662.00,-6.330868,2.9149406,-0.88645315,-9.537899,0.6104368,-2.196871419803792683.00,-6.606201,2.6312277,-0.93613285,-9.540514,0.65582305,-2.1723061419803792684.00,-6.7241154,2.3900118,-0.777517,-9.541845,0.71342605,-2.14816711419803792694.00,-6.830059,2.0775685,-0.4213795,-9.543912,0.7756208,-2.11719851419803792715.00,-7.0467343,1.7172412,-0.350152,-9.546343,0.84837496,-2.07797881419803792716.00,-7.844003,1.13964,-0.7625532,-9.548714,0.9295982,-2.03182841419803792723.00,-9.083003,0.6242881,-1.2042835,-9.55032,1.0121965,-1.98425421419803792759.00,-10.441712,0.3681085,-2.046444,-9.552064,1.0881163,-1.93505451419803792760.00,-11.687894,0.010175358,-3.513491,-9.553698,1.1534319,-1.8886161419803792761.00,-13.147161,-1.0426749,-5.627571,-9.554767,1.2015438,-1.85287071419803792765.00,-15.081676,-2.5528176,-6.6391215,-9.554059,1.2167119,-1.84660291419803792788.00,-17.092205,-3.8025908,-6.3338604,-9.556873,1.167105,-1.8639831419803792789.00,-17.427395,-3.490746,-5.3354783,-9.570092,1.035913,-1.87366741419803792794.00,-14.222157,-1.299453,-4.214992,-9.591495,0.8642194,-1.85115521419803792811.00,-11.109096,0.60693014,-3.70383,-9.613175,0.72773606,-1.79656311419803792813.00,-9.106945,1.377863,-2.8868086,-9.629846,0.6458868,-1.73762811419803792829.00,-7.844003,1.3521254,-0.8798691,-9.638642,0.59391236,-1.7071191419803792846.00,-8.137892,2.6683378,1.5664065,-9.64329,0.5736285,-1.68769121419803792847.00,-10.664372,4.4843397,3.4081461,-9.64032,0.58383465,-1.70111361419803792861.00,-14.159907,5.463568,4.827309,-9.640302,0.630631,-1.68443021419803792862.00,-17.541119,8.1959505,4.0162735,-9.65256,0.70513535,-1.58153621419803792881.00,-19.607315,6.930017,-3.518878,-9.666694,0.8524779,-1.41375851419803792898.00,-18.972252,3.269881,-6.0345855,-9.661519,0.97779393,-1.3672541419803792898.00,-11.40897,4.262876,-1.2198458,-9.65811,1.0025253,-1.37341141419803792902.00,-3.8361096,5.4713492,-5.5617304,-9.666415,0.9555389,-1.34824011419803792913.00,-0.59256494,5.6018333,-7.5171947,-9.652612,0.8937465,-1.48280811419803792933.00,-1.6214731,4.6004586,0.81043726,-9.618289,0.9063757,-1.68445711419803792934.00,-3.2130187,3.9851487,7.645883,-9.59227,0.93045056,-1.81465531419803792943.00,-4.5920787,3.4985273,7.2670007,-9.590389,0.9781226,-1.7994741419803792971.00,-5.6784477,3.3117795,5.2367177,-9.615727,1.0270793,-1.62888961419803792973.00,-6.5445504,3.8983588,3.6355953,-9.639587,1.0903355,-1.43522981419803792974.00,-7.6147585,5.059547,2.8095956,-9.650324,1.1791092,-1.28504161419803793009.00,-8.910022,6.3619924,2.5635915,-9.643141,1.3074043,-1.2128141419803793010.00,-10.37228,7.203554,2.653374,-9.624516,1.4787494,-1.16293551419803793011.00,-11.574169,7.3507977,2.8101943,-9.600273,1.6753505,-1.09469721419803793080.00,-12.109274,6.70556,2.6701334,-9.574685,1.869278,-1.00079441419803793084.00,-11.457452,5.5126495,2.1930888,-9.548602,2.0438905,-0.90394911419803793086.00,-10.235811,4.302979,1.5640123,-9.524303,2.1862683,-0.82356681419803793087.00,-9.457097,3.2423477,0.96546185,-9.500739,2.3033767,-0.775120441419803793089.00,-8.947132,2.303222,0.29328972,-9.477172,2.4009762,-0.76740241419803793091.00,-8.462905,1.5586253,-0.41240123,-9.453941,2.4808152,-0.79935011419803793094.00,-8.285135,0.9900024,-1.0223241,-9.430837,2.5467322,-0.862462041419803793113.00,-8.276156,0.61650693,-1.5191209,-9.406211,2.6057448,-0.950635431419803793114.00,-8.243835,0.39444473,-1.8100165,-9.381673,2.65866,-1.0421921419803793115.00,-8.347384,0.23942018,-1.7040731,-9.356472,2.7107966,-1.13066171419803793139.00,-8.692149,0.040102877,-1.2276269,-9.332895,2.764407,-1.19394031419803793139.00,-9.118916,-0.2184709,-0.6823475,-9.31434,2.81761,-1.21430981419803793140.00,-9.264363,-0.3842694,-0.26994625,-9.303502,2.8664343,-1.18270291419803793143.00,-8.944139,-0.34955344,-0.075417355,-9.298788,2.9116673,-1.10685241419803793161.00,-8.494628,-0.15981296,-0.23163901,-9.295563,2.9575167,-1.00795481419803793163.00,-8.000824,0.076614454,-0.59136784,-9.290437,3.005542,-0.908234241419803793179.00,-7.6009917,0.30705637,-0.7032967,-9.284235,3.0510294,-0.815237941419803793194.00,-7.40347,0.5626374,-0.6895301,-9.279197,3.087346,-0.731556651419803793195.00,-7.52737,0.93852705,-0.7092823,-9.277138,3.1107345,-0.65458621419803793215.00,-7.796119,1.3144168,-0.6697779,-9.278708,3.120894,-0.57963121419803793216.00,-8.048708,1.6705543,-0.6368576,-9.281985,3.1253326,-0.497439241419803793223.00,-8.148665,2.1200657,-0.46627077,-9.287563,3.1213574,-0.410726581419803793249.00,-8.319851,2.5037365,-0.18555063,-9.293384,3.1157887,-0.308657941419803793249.00,-8.388684,2.7455509,0.034117375,-9.297884,3.111883,-0.189525381419803793255.00,-8.409634,2.8329391,0.142455,-9.300399,3.1095946,-0.0581014751419803793263.00,-8.78672,2.6629508,0.20111294,-9.301135,3.1069262,0.0794049651419803793286.00,-9.002198,2.5635915,0.29029694,-9.301089,3.100308,0.219574481419803793287.00,-9.007586,2.569577,0.2861071,-9.299501,3.092153,0.358147681419803793295.00,-8.975264,2.6126726,0.16639702,-9.294358,3.08909,0.4927731419803793312.00,-9.391256,2.5432408,-0.09696517,-9.284944,3.0952842,0.615981461419803793331.00,-9.850345,2.4893713,-0.31902736,-9.273956,3.106339,0.71746031419803793331.00,-10.344149,2.4181437,-0.41299978,-9.264007,3.1176744,0.792885841419803793334.00,-10.655395,2.3199813,-0.3705027,-9.256573,3.1264458,0.843564451419803793343.00,-10.69849,2.284667,-0.21188685,-9.251585,3.1327708,0.87424951419803793358.00,-10.693104,2.1667526,-0.055066638,-9.246756,3.1398728,0.89951551419803793379.00,-10.468048,2.0913353,0.08200141,-9.242329,3.1481555,0.9159161419803793379.00,-10.283096,1.9698294,0.13587095,-9.238457,3.1562634,0.926993251419803793394.00,-9.939528,1.7244238,0.18495208,-9.235659,3.1630723,0.93165491419803793395.00,-9.512163,1.4329298,0.1592144,-9.233428,3.1695917,0.93162561419803793411.00,-9.247005,1.1575965,-0.01616086,-9.23103,3.1765285,0.931754231419803793427.00,-9.074623,0.87927055,-0.30526072,-9.228198,3.1857781,0.928209071419803793428.00,-9.111733,0.6464345,-0.6781576,-9.2249155,3.1976235,0.9200791419803793442.00,-9.63726,0.7212533,-1.3509283,-9.222096,3.21059,0.903018531419803793443.00,-10.83077,0.961272,-2.473809,-9.220576,3.2237177,0.87120651419803793460.00,-11.847109,1.0696096,-3.7295678,-9.222383,3.2320707,0.819634741419803793464.00,-12.258312,1.0995371,-5.2726307,-9.229098,3.2289364,0.753727561419803793492.00,-11.954847,1.2467805,-4.0156746,-9.237559,3.217789,0.69550391419803793494.00,-11.583148,1.9111716,9.735423,-9.245591,3.1982028,0.678930341419803793532.00,-10.927136,0.98222125,6.7330937,-9.23646,3.1647706,0.91783851419803793534.00,-10.630256,-0.025737667,-3.816956,-9.22129,3.1151197,1.19758771419803793535.00,-10.166978,1.1240777,-3.2345665,-9.22902,3.053557,1.29280821419803793536.00,-10.681132,2.2583308,-2.224812,-9.284521,2.9907448,1.01167761419803793538.00,-12.041637,3.1932666,-1.934515,-9.351261,2.9086382,0.51395551419803793544.00,-13.414114,4.0934863,-1.6226702,-9.403175,2.7834764,0.053991121419803793571.00,-14.766837,5.101445,-1.5951369,-9.446978,2.6139367,-0.3038831419803793573.00,-15.650298,6.259042,-2.03148,-9.483508,2.4225698,-0.60382051419803793576.00,-15.710752,7.319673,-2.4121583,-9.508236,2.2413366,-0.860386431419803793608.00,-14.680646,7.7069354,-1.62686,-9.521023,2.0903313,-1.0728691419803793609.00,-12.660539,7.0090256,2.0763714,-9.530235,1.968944,-1.21172561419803793610.00,-10.937312,5.5258174,1.83336,-9.552261,1.8515149,-1.22335531419803793654.00,-10.127473,4.8943467,-2.5623944,-9.577186,1.7369983,-1.19612881419803793655.00,-8.810063,5.391144,-1.7998412,-9.600146,1.6226894,-1.17237851419803793656.00,-7.829638,6.033388,0.24600422,-9.605902,1.5206999,-1.25877671419803793657.00,-7.4405804,6.0890536,1.043872,-9.594166,1.4394021,-1.43195241419803793659.00,-7.397485,5.4061074,0.29328972,-9.58659,1.3639001,-1.55160871419803793704.00,-7.3047094,4.619612,-1.050456,-9.58743,1.2789873,-1.6173371419803793706.00,-6.7785835,4.004901,-1.5514427,-9.589063,1.1834964,-1.67916771419803793707.00,-6.1938,3.1651347,-1.5514427,-9.589498,1.0877519,-1.74032041419803793709.00,-5.9627595,2.0362685,-1.6795325,-9.587909,1.0004702,-1.8003941419803793710.00,-5.8065376,0.85652566,-1.2970588,-9.585965,0.9257737,-1.85003281419803793716.00,-5.889736,0.045489833,-0.17477672,-9.583658,0.8669006,-1.89007141419803793726.00,-6.2728086,0.17178397,2.2176294,-9.580257,0.8204778,-1.92766441419803793780.00,-5.595848,1.4359225,2.4450784,-9.578791,0.77766633,-1.95254521419803793781.00,-4.8997335,2.3523033,1.6932992,-9.577188,0.73958355,-1.97505571419803793781.00,-4.5675383,2.942474,0.89662856,-9.57493,0.7027983,-1.99929631419803793782.00,-4.2742486,3.4524388,0.45070848,-9.57025,0.6692153,-2.03294781419803793783.00,-4.0078936,3.791817,0.33039984,-9.562139,0.64087856,-2.07970381419803793784.00,-4.0001125,3.7966053,0.22445641,-9.552183,0.622447,-2.13042931419803793795.00,-4.4460325,3.4853592,0.091578215,-9.543287,0.6106192,-2.17330221419803793829.00,-4.8644195,3.3632548,-0.05327099,-9.535064,0.610967,-2.20900421419803793830.00,-5.305551,3.3913867,-0.24241292,-9.5307,0.62394863,-2.22414851419803793831.00,-5.620987,3.3919852,-0.6380547,-9.531092,0.6536745,-2.21390941419803793835.00,-6.033987,3.4344823,-0.7751228,-9.5351715,0.7038608,-2.18070861419803793844.00,-6.373365,3.5272577,-0.57520694,-9.541384,0.774649,-2.12892991419803793869.00,-6.9264255,3.5314474,-0.31483752,-9.547727,0.864594,-2.06489091419803793870.00,-7.854179,3.2824504,-0.45489833,-9.553144,0.9641835,-1.99453891419803793875.00,-9.452309,2.8933928,-1.4095862,-9.555677,1.0799555,-1.92175951419803793899.00,-11.304822,2.1218612,-3.5691562,-9.554728,1.2070986,-1.8494631419803793900.00,-13.369223,0.4842273,-5.345055,-9.549169,1.3348223,-1.78941561419803793904.00,-16.890495,-2.5881321,-7.7428484,-9.54185,1.4427623,-1.74411571419803793926.00,-19.594746,-6.730101,-9.64145,-9.539594,1.4702948,-1.7334261419803793927.00,-19.60911,-10.077195,-7.7745714,-9.54306,1.5524864,-1.64016961419803793946.00,-17.985842,-9.190742,-5.9507885,-9.560089,1.5280507,-1.56209561419803793947.00,-13.059174,-6.1303535,-5.498883,-9.4092,-0.70151013,-2.67305091419803793955.00,-10.296863,-3.7271736,-2.973,-9.3432865,-1.1454084,-2.74980661419803793980.00,-8.875904,-2.1505916,2.03148,-9.3363495,-1.2869807,-2.7104731419803793981.00,-7.6548615,0.6631939,7.3926964,-9.414386,-1.3141315,-2.41097451419803793983.00,-7.961319,4.1240125,10.212467,-9.584806,-1.1601275,-1.71930581419803793995.00,-9.606734,5.2516813,10.416573,-9.755015,-0.7134323,-0.707897541419803794028.00,-10.798449,7.2005615,6.8007298,-9.799467,-0.16181396,0.338600671419803794029.00,-11.343129,10.961254,-1.5825673,-9.743771,0.5308675,0.97341071419803794030.00,-12.723387,17.372328,-19.608511,-9.663331,1.5081127,0.718368051419803794037.00,-13.872603,12.653356,-11.767501,-9.652635,1.5995336,0.662205461419803794044.00,-12.167932,7.273585,-0.46088383,-9.643285,1.7016442,0.53092121419803794058.00,-8.51019,5.422867,3.2477345,-8.927135,3.617827,-1.84063781419803794080.00,-5.9047,4.398747,4.577115,-8.961444,3.733533,-1.38694661419803794081.00,-5.117606,3.1364043,4.1772833,-8.9661045,3.8991854,-0.758769631419803794084.00,-5.2223525,2.0045455,2.961029,-8.942614,4.009593,-0.35105041419803794095.00,-5.647323,1.5328877,2.2840683,-8.954406,3.9964802,-0.130945771419803794111.00,-6.1902084,1.7202339,2.134431,-8.992072,3.912336,0.081592831419803794115.00,-7.0090256,2.379238,2.3612814,-9.0219555,3.830995,0.313337651419803794123.00,-8.302493,3.072958,2.6593595,-9.029606,3.7823892,0.57459441419803794141.00,-9.834782,3.5410242,2.9251158,-9.020403,3.7597144,0.81687111419803794144.00,-10.873267,3.74513,3.0160956,-9.01087,3.721364,1.06115911419803794158.00,-11.323377,3.7379475,2.7443538,-9.010828,3.660565,1.2552521419803794177.00,-11.12406,3.5093012,2.195483,-9.022816,3.588979,1.37055831419803794177.00,-10.458471,3.1860838,1.4873978,-9.047108,3.5151618,1.40138361419803794193.00,-9.929952,2.718616,0.7661445,-9.079136,3.448565,1.35906721419803794208.00,-9.620501,2.0362685,0.23702596,-9.121924,3.365553,1.27825181419803794209.00,-9.17099,1.3838485,-0.16998832,-9.184287,3.23948,1.15109661419803794225.00,-8.617929,0.92416185,-0.43275195,-9.255348,3.0784209,1.01599851419803794226.00,-8.213907,0.70509243,-0.5746084,-9.324108,2.9066107,0.88487031419803794238.00,-7.9702973,0.6075287,-0.4866215,-9.384971,2.7406285,0.762680651419803794243.00,-7.908048,0.581791,-0.16519992,-9.436598,2.5837374,0.66730361419803794256.00,-7.9278,0.61291564,0.3345897,-9.479608,2.4338732,0.61942841419803794274.00,-8.083424,0.62249243,0.7757214,-9.514289,2.2947295,0.618795341419803794275.00,-8.134899,0.5614403,1.0827777,-9.541105,2.1613126,0.68295951419803794289.00,-8.267179,0.44232875,1.2078748,-9.563207,2.0293746,0.77274031419803794303.00,-8.354567,0.40102878,1.0905589,-9.583722,1.8926187,0.86060271419803794304.00,-8.318654,0.5069722,0.7164649,-9.60332,1.7615608,0.918449341419803794320.00,-8.434174,0.6973112,0.30346507,-9.622479,1.6547958,0.91647891419803794324.00,-8.520366,0.92416185,-0.17717093,-9.640518,1.5756415,0.86495391419803794343.00,-8.668207,1.1372458,-0.7092823,-9.657848,1.526238,0.75297061419803794346.00,-8.889072,1.2030864,-1.0462662,-9.672892,1.501378,0.592809861419803794361.00,-8.9998045,1.3030443,-1.0875661,-9.685201,1.4808433,0.417585941419803794364.00,-8.99741,1.4730326,-0.9636662,-9.692018,1.4711931,0.2660891419803794375.00,-8.973468,1.7190368,-0.83497787,-9.692497,1.4840342,0.153351071419803794400.00,-9.085397,1.9069817,-0.78290397,-9.687158,1.5243778,0.074982471419803794401.00,-8.98903,2.132635,-0.6895301,-9.678448,1.5805176,0.0035989011419803794404.00,-8.880095,2.2068555,-0.55365914,-9.665626,1.6564817,-0.0464496171419803794438.00,-8.784326,2.1811178,-0.47465047,-9.651518,1.7353231,-0.0852040051419803794439.00,-8.829217,2.0404584,-0.5153519,-9.638572,1.8040127,-0.117775321419803794439.00,-8.92738,1.934515,-0.6135142,-9.629694,1.8478023,-0.158147661419803794461.00,-9.04709,1.9393034,-0.6805518,-9.623607,1.8741219,-0.210396321419803794462.00,-9.035119,2.042254,-0.4758476,-9.618041,1.8965211,-0.258608281419803794464.00,-9.060258,2.1290438,-0.14305355,-9.610382,1.9307265,-0.288586051419803794476.00,-9.352949,2.1350293,0.30825347,-9.602221,1.9724661,-0.277682961419803794496.00,-9.560047,2.1158757,0.7284359,-9.597516,2.002912,-0.215491011419803794497.00,-9.64145,2.0859482,1.0929531,-9.595684,2.0199115,-0.114962011419803794506.00,-9.807249,2.0602105,1.2988545,-9.594397,2.0292253,0.013540451419803794532.00,-9.873089,1.9590555,1.30484,-9.592967,2.030733,0.146575881419803794534.00,-9.63726,1.79206,1.1504139,-9.592592,2.020577,0.264281061419803794536.00,-9.541492,1.6017209,0.9020155,-9.5943985,1.999463,0.346494641419803794566.00,-9.476849,1.496376,0.7015011,-9.600027,1.9634628,0.393289721419803794567.00,-9.541492,1.3844471,0.5410896,-9.607522,1.9214003,0.417276741419803794569.00,-9.621698,1.3599066,0.37229836,-9.616734,1.8725057,0.4272511419803794595.00,-9.622895,1.3042414,0.14724341,-9.625926,1.8256248,0.423117881419803794596.00,-9.950901,1.1067197,-0.03172317,-9.635799,1.7795179,0.39380411419803794597.00,-11.088745,1.1252748,-0.088585466,-9.64959,1.7130088,0.348470331419803794604.00,-12.366651,1.0881647,-0.42556936,-9.66468,1.6356447,0.298382071419803794621.00,-13.197438,0.65062433,-2.0069396,-9.682048,1.54277,0.219504921419803794626.00,-13.496714,0.08439561,-5.0397944,-9.705254,1.4065756,-1.52E-041419803794643.00,-12.767679,0.12749124,-4.900931,-9.71816,1.2291425,-0.465789141419803794664.00,-11.705252,0.85772276,3.028665,-9.708759,1.0899338,-0.849962651419803794665.00,-10.986992,0.83617496,11.938088,-9.739932,1.0502781,-0.448356361419803794665.00,-10.953473,-0.6793547,-2.0973208,-9.721326,1.0221882,0.78826171419803794676.00,-10.531495,0.14844051,-3.752911,-9.75031,0.83002955,0.64256841419803794697.00,-10.2896805,1.4466964,-1.7962499,-9.781181,0.70366555,0.06121231419803794698.00,-10.949882,2.4211364,-1.4287399,-9.769731,0.7229086,-0.447385461419803794704.00,-11.903373,3.3249476,-2.0620062,-9.75276,0.8410718,-0.58875211419803794726.00,-12.828133,4.361637,-2.8449101,-9.73057,0.9975231,-0.700955751419803794727.00,-13.575722,5.195418,-2.9747956,-9.693864,1.206092,-0.86297241419803794736.00,-13.917495,5.9226565,-2.1613655,-9.641057,1.4593385,-1.0443811419803794767.00,-13.57692,6.509236,-1.3808558,-9.583463,1.750167,-1.12451431419803794768.00,-12.54442,6.9467764,-0.7320272,-9.523341,2.0663328,-1.09846571419803794769.00,-11.095928,7.3418193,5.99E-04,-9.4555025,2.3969543,-1.00919521419803794776.00,-9.730635,7.1951747,1.1049241,-9.374587,2.7385566,-0.88760291419803794800.00,-9.46009,6.260239,2.1027076,-9.288589,3.0717173,-0.676083741419803794801.00,-9.475652,4.711789,3.1681273,-9.225386,3.3010604,-0.407019561419803794805.00,-9.98442,3.4500446,-0.02813187,-9.202831,3.386873,-0.085955111419803794826.00,-8.989629,3.293823,-1.5041572,-9.214223,3.3556323,-0.090624861419803794827.00,-7.602189,2.9227216,-0.98700964,-9.213343,3.3472197,-0.284323721419803794836.00,-7.1748238,2.142212,-0.694917,-9.204626,3.356242,-0.42533321419803794871.00,-7.113772,1.2216414,-0.91458505,-9.215012,3.3211043,-0.473521419803794872.00,-7.00304,0.12389994,-1.4574703,-9.2574625,3.1987891,-0.4873721419803794874.00,-6.939594,-0.9056068,-1.5227122,-9.325547,2.9827752,-0.554616031419803794898.00,-6.855198,-1.003769,-0.30226797,-9.409598,2.6856058,-0.646046941419803794898.00,-6.613384,0.31004912,1.4335283,-9.48948,2.3952532,-0.618817571419803794899.00,-6.395511,1.7848774,2.1254525,-9.535225,2.2531748,-0.416032881419803794904.00,-5.8424506,2.9706059,1.6101006,-9.537334,2.278044,-0.141966341419803794927.00,-5.112818,3.8762126,1.062427,-9.49644,2.4465847,0.0476660061419803794927.00,-4.486734,4.4783545,0.7978677,-9.416813,2.7332695,0.15250761419803794938.00,-4.0456023,4.7866077,0.79607207,-9.302622,3.0956826,0.219917011419803794968.00,-3.958214,4.809353,0.79008657,-9.16045,3.4884434,0.295512651419803794969.00,-4.4741645,4.57113,0.60693014,-9.005173,3.8642077,0.38097911419803794970.00,-5.0397944,4.232949,0.39205053,-8.869975,4.1584134,0.448934441419803794976.00,-5.5120506,3.8385038,0.338181,-8.766247,4.3705807,0.470453021419803794998.00,-6.108207,3.3782187,0.2124854,-8.69924,4.5001082,0.49258481419803794999.00,-6.633734,3.0238767,0.12928689,-8.679773,4.5379815,0.488534631419803795004.00,-7.0395517,2.815581,0.23523031,-8.698051,4.5050015,0.468240621419803795021.00,-7.1526775,2.5516205,0.15741876,-8.736602,4.43027,0.46355451419803795024.00,-7.2807674,2.2319946,-0.2705448,-8.790421,4.3240585,0.44881111419803795037.00,-7.559692,1.702876,-0.29688102,-8.857084,4.1932454,0.373049471419803795056.00,-9.388264,0.4381389,-0.44651863,-8.947641,4.002968,0.29382341419803795057.00,-11.188105,-0.30526072,-3.66672,-9.118364,3.6036892,0.198106751419803795073.00,-13.289017,-2.3187842,-6.18123,-9.300268,3.0975897,-0.283462731419803795090.00,-15.787366,-6.015432,-7.6452847,-9.467334,2.3674917,-0.9669431419803795090.00,-17.972075,-10.196905,-6.4140663,-9.580798,1.3054525,-1.63538061419803795110.00,-18.638262,-12.430696,-3.9677908,-9.610568,0.048213996,-1.95066641419803795110.00,-16.596605,-10.697892,-3.5607765,-9.623643,0.03092413,-1.88545371419803795118.00,-12.919711,-6.344036,-4.5298295,-9.433724,-1.9224721,-1.86530521419803795124.00,-10.55843,-1.9716251,-5.073313,-9.341368,-2.2442212,-1.96793441419803795140.00,-11.909956,1.5502456,-2.0482395,-9.300313,-2.179954,-2.21863941419803795154.00,-14.308348,4.935647,2.160767,-9.369203,-1.8150373,-2.25700931419803795156.00,-15.712547,8.351574,4.1521444,-9.543027,-1.2138158,-1.9046531419803795171.00,-16.183008,11.589732,-0.30825347,-9.7040615,-0.39842504,-1.35750071419803795188.00,-12.017695,12.638392,-9.8198185,-9.72,0.5660333,-1.17115271419803795189.00,-7.5866265,11.112088,-9.399636,-9.532869,1.4936136,-1.75040051419803795209.00,-4.983531,8.319851,-3.4542346,-9.257145,2.2209234,-2.35439521419803795209.00,-5.0918684,5.887342,0.10115502,-9.059113,2.741453,-2.56658121419803795216.00,-5.9849057,4.7925935,4.3760023,-8.980452,3.1035316,-2.4269311419803795225.00,-5.9723363,3.8025908,6.4302273,-9.020291,3.3697019,-1.85738381419803795245.00,-5.807136,2.6844985,4.647744,-9.066184,3.5618782,-1.13477331419803795246.00,-6.329671,1.8046296,3.05141,-9.085916,3.6402328,-0.604354741419803795257.00,-7.252037,1.6340426,2.344522,-9.120026,3.597721,-0.22785951419803795278.00,-8.258201,1.9853917,2.2164323,-9.162369,3.4957356,0.0343348161419803795279.00,-9.576208,2.469619,2.2756886,-9.194956,3.4002943,0.247356221419803795286.00,-11.031883,2.7365725,2.4169466,-9.218017,3.3133132,0.46959381419803795315.00,-12.047025,2.5432408,2.4636335,-9.237915,3.2217543,0.672037661419803795316.00,-12.305598,1.857302,2.1817162,-9.267871,3.0895576,0.85533031419803795317.00,-11.693281,1.1959038,1.5777789,-9.317351,2.900497,0.971839551419803795325.00,-10.926538,0.51235914,0.842759,-9.376485,2.6909506,1.00534141419803795345.00,-10.502166,-0.17896658,0.024540568,-9.444541,2.4627035,0.95190441419803795346.00,-10.045472,-0.4261679,-0.7200562,-9.521179,2.2022686,0.817044141419803795356.00,-9.454702,-0.29987377,-1.2689269,-9.588975,1.9560608,0.62909521419803795373.00,-8.896255,-0.037708677,-1.4802152,-9.640669,1.7443817,0.430143241419803795389.00,-8.412027,0.2160767,-1.2856863,-9.674965,1.5855144,0.227153971419803795389.00,-8.057686,0.47884035,-0.7038953,-9.695613,1.4693874,0.079929281419803795408.00,-7.77517,0.7320272,0.23582886,-9.707831,1.388418,0.0259779081419803795408.00,-7.602189,0.8984242,1.1174936,-9.714315,1.3392603,0.094074121419803795416.00,-7.4866686,1.09834,1.7250223,-9.714084,1.3169737,0.269350021419803795446.00,-7.4471645,1.3940239,1.8920178,-9.706753,1.3146558,0.47014091419803795447.00,-7.4256167,1.702876,1.5622166,-9.688004,1.3489684,0.70232351419803795448.00,-7.4082584,2.006341,1.0516531,-9.665119,1.4206101,0.858915751419803795457.00,-7.5890207,2.2583308,0.6961141,-9.643945,1.5214455,0.921923161419803795482.00,-7.542334,2.4971523,0.59376204,-9.624986,1.6394471,0.91774441419803795483.00,-7.357382,2.6725276,0.56802434,-9.603514,1.7747995,0.89049751419803795485.00,-7.285556,2.6743233,0.38307226,-9.577183,1.9220421,0.86817111419803795509.00,-7.3807254,2.7060466,0.1376666,-9.551199,2.0594769,0.83876791419803795510.00,-7.3148847,2.8257565,-0.08559271,-9.528284,2.185229,0.779082361419803795517.00,-7.2005615,3.0119057,-0.16699557,-9.503468,2.3168309,0.69771811419803795544.00,-7.502231,3.1651347,-0.05267244,-9.471582,2.4655821,0.61679281419803795546.00,-7.9032598,3.25791,0.16938977,-9.436414,2.6096613,0.56049981419803795546.00,-8.395268,3.3441012,0.2777274,-9.402991,2.7320752,0.53841071419803795557.00,-8.868123,3.4566288,0.2645593,-9.373329,2.8344343,0.526397651419803795577.00,-9.2787285,3.58412,0.29867667,-9.347027,2.9225042,0.512298941419803795578.00,-9.65821,3.5727475,0.350152,-9.322654,3.0020676,0.496104181419803795588.00,-10.041881,3.4021606,0.42796355,-9.304711,3.059352,0.482801651419803795615.00,-10.198701,3.0723593,0.76315176,-9.298358,3.0791795,0.479152471419803795617.00,-10.326192,2.5600002,1.1420342,-9.30336,3.0583506,0.51415951419803795618.00,-10.354323,1.9800048,1.3946224,-9.323109,2.984483,0.58556881419803795643.00,-10.361506,1.4131776,1.4921862,-9.354534,2.8651662,0.67373281419803795643.00,-10.473435,0.97384155,1.4287399,-9.395702,2.7051148,0.757314741419803795647.00,-10.803835,0.59735334,1.1791444,-9.44253,2.5184984,0.81621411419803795670.00,-10.988788,0.23822308,0.8571242,-9.494754,2.308079,0.8323581419803795670.00,-10.957663,-0.11791443,0.51595044,-9.549079,2.0816796,0.80752461419803795686.00,-10.749367,-0.3776853,0.11252748,-9.601535,1.8486054,0.750721931419803795686.00,-10.459669,-0.52852005,-0.31064767,-9.648647,1.6192462,0.67233171419803795712.00,-10.317214,-0.7104794,-0.6913257,-9.689406,1.4051225,0.55803311419803795713.00,-10.322002,-0.8002619,-1.1306617,-9.724085,1.1969643,0.424050181419803795717.00,-10.879851,-0.801459,-3.8594532,-9.751973,0.99872506,0.268276271419803795746.00,-11.362882,-0.7930793,-7.8302364,-9.772082,0.81291944,-0.126421571419803795746.00,-10.87207,-0.6805518,-0.2136825,-9.749543,0.6377929,-0.84263391419803795747.00,-10.253169,-1.2934675,15.279796,-9.766777,0.49958912,-0.72861711419803795758.00,-10.544662,-3.21661,-5.2852,-9.763802,0.30842686,0.86223231419803795772.00,-10.204087,-1.9141643,-6.331466,-9.793267,-0.07241642,0.506998541419803795793.00,-10.011953,-0.56084174,-3.5877113,-9.800363,-0.3340762,-0.108004451419803795794.00,-11.002554,0.16579847,-3.4141316,-9.76074,-0.43200904,-0.84363581419803795797.00,-12.824541,0.8762778,-4.4873323,-9.7220545,-0.4177917,-1.21552551419803795805.00,-14.471752,2.0626047,-3.946243,-9.700272,-0.3302879,-1.40214351419803795835.00,-15.7586355,3.3063924,-1.5514427,-9.678104,-0.14990999,-1.57549871419803795835.00,-16.89648,4.5723267,0.23762453,-9.685363,0.1218658,-1.53272871419803795839.00,-17.873314,5.864597,0.6859388,-9.704943,0.46076253,-1.33123461419803795862.00,-17.657837,7.069479,0.43634325,-9.707897,0.8394319,-1.10567221419803795862.00,-16.05791,7.795521,0.48482585,-9.680384,1.2451156,-0.954082971419803795865.00,-13.434464,7.7787614,1.1432313,-9.627991,1.6547521,-0.856719731419803795895.00,-11.006743,7.177218,1.4508862,-9.567272,2.0287402,-0.72242351419803795895.00,-9.407417,6.5726824,1.2952632,-9.4998865,2.3663924,-0.56809391419803795897.00,-8.740632,6.101623,0.74519527,-9.431322,2.6562617,-0.406021181419803795905.00,-8.406641,5.9663506,0.5590461,-9.362458,2.9019496,-0.30572191419803795921.00,-7.8823104,5.6341553,0.16460137,-9.290064,3.131338,-0.244602551419803795936.00,-7.2819643,5.146935,-0.55126494,-9.218096,3.3390517,-0.218676081419803795937.00,-6.8121023,4.6818614,-0.8858546,-9.152012,3.5146978,-0.240742941419803795954.00,-6.101623,4.216788,-0.93134445,-9.091977,3.6626637,-0.302101971419803795981.00,-5.4779334,3.481768,-1.1947067,-9.037395,3.7909057,-0.353412451419803795981.00,-5.1966147,2.5276785,-1.7399861,-8.996335,3.8797834,-0.428514751419803795982.00,-4.9895163,1.5514427,-2.0201077,-8.980221,3.901502,-0.55165421419803795985.00,-4.8440685,0.7613561,-1.1384429,-8.991142,3.8508048,-0.707861841419803796006.00,-5.1241903,0.38067806,0.51355624,-9.031012,3.7384942,-0.796798651419803796007.00,-5.6227827,0.64823014,1.1366472,-9.104948,3.5788999,-0.67957981419803796019.00,-5.740697,1.5502456,0.84694886,-9.177582,3.4207165,-0.491008341419803796037.00,-5.602432,2.27928,0.39683893,-9.210509,3.3494585,-0.3435961419803796037.00,-5.227141,2.8568811,0.10354923,-9.204557,3.3716364,-0.280343151419803796053.00,-4.84766,3.301604,0.17357962,-9.164603,3.4796176,-0.26963471419803796076.00,-4.6459484,3.5326445,0.3705027,-9.0977745,3.65301,-0.237474871419803796077.00,-4.844667,3.4727895,0.29628247,-9.019349,3.8463514,-0.1652421419803796078.00,-5.309142,3.2399535,0.15502456,-8.945748,4.016493,-0.1083539951419803796086.00,-5.6586957,3.105878,-0.044292733,-8.897328,4.1235642,-0.064785491419803796113.00,-6.0363812,2.9963434,-0.338181,-8.865856,4.191008,-0.049504331419803796114.00,-6.2362967,2.995745,-0.85054016,-8.850426,4.223071,-0.077561381419803796117.00,-6.4427967,2.973,-1.2545617,-8.840081,4.2417884,-0.174825821419803796147.00,-6.9048777,2.7072437,-1.2521675,-8.838436,4.2370887,-0.315494541419803796147.00,-7.5213847,2.2337902,-1.1695676,-8.858481,4.183218,-0.44540161419803796148.00,-8.401254,1.5765818,-1.388637,-8.9152355,4.0491586,-0.54153091419803796168.00,-9.4457245,0.7493851,-1.816002,-9.011801,3.8126779,-0.649096971419803796169.00,-10.565014,-0.17956513,-2.6078842,-9.14091,3.4626489,-0.79007311419803796185.00,-12.170924,-1.714847,-4.1198225,-9.280702,3.0045948,-1.00567461419803796188.00,-14.03481,-3.7175968,-5.7125654,-9.41779,2.3775952,-1.35005561419803796215.00,-16.04175,-5.9346275,-6.157887,-9.513802,1.5889531,-1.7700861419803796216.00,-17.478271,-7.867347,-5.0637364,-9.5559845,0.6810471,-2.09516381419803796217.00,-16.940773,-8.214506,-4.216788,-9.555373,-0.23041181,-2.1936581419803796243.00,-13.746309,-5.834071,-4.43885,-9.512822,-0.9689701,-2.17663461419803796244.00,-11.671733,-3.0148985,-5.183447,-9.450678,-1.359268,-2.23774031419803796246.00,-11.187506,-0.16220717,-4.1144357,-9.388765,-1.447733,-2.4342461419803796270.00,-12.129025,2.0530279,1.3024458,-9.371782,-1.3040804,-2.5767141419803796270.00,-14.021044,2.9735985,4.0707417,-9.496515,-0.9837777,-2.24025921419803796289.00,-15.6712475,5.089474,5.059547,-9.64427,-0.61919576,-1.66583941419803796290.00,-16.577452,6.9796963,4.7758336,-9.75287,-0.11736148,-1.01889941419803796297.00,-15.2809925,5.81372,0.545878,-9.78318,0.47433266,-0.484524821419803796320.00,-12.481572,4.3556514,-5.081693,-9.760253,0.8694173,-0.389835771419803796321.00,-8.558673,5.000889,-6.870162,-9.715244,1.0651782,-0.806132261419803796337.00,-5.2079873,5.7323174,-10.268132,-9.616029,1.3410703,-1.37982481419803796337.00,-4.8656163,5.3528366,-4.57113,-9.415764,1.706349,-2.1452581419803796357.00,-5.651513,4.6034513,1.6089035,-9.285225,2.0960314,-2.35831331419803796358.00,-6.4481835,3.7684734,4.402937,-9.281214,2.4312503,-2.02941271419803796366.00,-6.9946604,2.9173348,3.9073372,-9.322425,2.6695766,-1.46156191419803796390.00,-7.141904,2.558803,2.790442,-9.351053,2.7887604,-0.97519941419803796391.00,-7.4286094,3.071761,1.8495208,-9.362482,2.846683,-0.6408711419803796398.00,-8.2833395,3.103484,1.8956091,-9.343983,2.9486423,-0.40728261419803796425.00,-9.275736,2.8981812,2.0482395,-9.328173,3.0204237,-0.18067631419803796426.00,-9.845556,2.6366146,2.2080526,-9.327449,3.0275683,0.0538596031419803796427.00,-10.151415,2.1511903,2.1146786,-9.337891,2.9826913,0.278812261419803796438.00,-10.397419,1.5143325,1.8291701,-9.360947,2.8859909,0.46271221419803796462.00,-10.65719,0.8858546,1.5316905,-9.399537,2.7334123,0.58952481419803796463.00,-10.7356,0.47165772,1.1899183,-9.45051,2.5336063,0.66262631419803796466.00,-10.479421,0.21308395,0.7230489,-9.505036,2.3101015,0.698655661419803796495.00,-10.033501,-0.04070143,0.08319851,-9.647333,1.6906872,0.49086571419803796496.00,-9.384073,-0.21068975,-0.5931635,-9.647333,1.6906872,0.49086571419803796498.00,-8.796896,-0.24061728,-1.1127052,-9.647333,1.6906872,0.49086571419803796543.00,-8.292916,-0.15442601,-1.2324153,-9.682865,1.5171167,0.332979321419803796543.00,-8.118738,-0.033518825,-0.85532856,-9.708015,1.3750215,0.18470951419803796544.00,-8.153454,0.08140286,-0.25797522,-9.725958,1.2523832,0.0874766261419803796545.00,-8.1797905,0.17836803,0.338181,-9.738824,1.1485254,0.0811345651419803796547.00,-8.192958,0.29328972,0.89064306,-9.74789,1.0614572,0.149455821419803796575.00,-8.202535,0.45130703,0.908001,-9.752281,0.9935332,0.276200061419803796576.00,-8.1797905,0.6488287,0.45190558,-9.752923,0.94967186,0.38600541419803796578.00,-8.122928,0.9451111,0.093972415,-9.753353,0.9329763,0.414772661419803796586.00,-8.090008,1.1797429,-0.19991584,-9.752706,0.95223135,0.38521981419803796606.00,-7.9996266,1.3449428,-0.32561144,-9.750569,0.9949023,0.327032981419803796609.00,-7.841609,1.5119383,-0.3573346,-9.745728,1.0215452,0.384189871419803796618.00,-7.909844,1.6106992,-0.27234045,-9.740766,1.0487576,0.433594261419803796639.00,-8.019379,1.8513165,-0.25498247,-9.735296,1.0740857,0.49068391419803796640.00,-7.8930845,2.1990743,-0.22026655,-9.728512,1.1017559,0.55908411419803796647.00,-7.992444,2.4049757,-0.12389994,-9.719468,1.1376055,0.63887311419803796674.00,-8.008605,2.456451,0.008379706,-9.708478,1.1807609,0.72226681419803796675.00,-8.152257,2.3678656,0.109534726,-9.69582,1.2270379,0.8098581419803796678.00,-8.399458,2.2816741,0.23283611,-9.682438,1.2710608,0.897322951419803796687.00,-8.674791,2.3391352,0.29927522,-9.668702,1.3123289,0.982036531419803796706.00,-8.959702,2.4462755,0.3890578,-9.654846,1.3549279,1.05760591419803796707.00,-9.121908,2.5498247,0.47764325,-9.640888,1.4028114,1.12062851419803796718.00,-9.23264,2.5845408,0.5363012,-9.627616,1.4540416,1.16839851419803796740.00,-9.455301,2.4941597,0.54288524,-9.614151,1.5095739,1.20818521419803796741.00,-9.812037,2.3588872,0.48482585,-9.602391,1.5642056,1.23195651419803796747.00,-10.190321,2.2385786,0.45310268,-9.592903,1.6144489,1.24103461419803796775.00,-10.438121,2.0536265,0.5446809,-9.585323,1.6592997,1.24044431419803796776.00,-10.481216,1.8166006,0.6374562,-9.578774,1.6972988,1.23960781419803796778.00,-10.4967785,1.4939818,0.6781576,-9.572966,1.728117,1.24191561419803796807.00,-10.432136,1.1133038,0.6955156,-9.56823,1.7516404,1.24545191419803796808.00,-10.415376,0.7080852,0.6913257,-9.565022,1.7670313,1.2483331419803796809.00,-10.312426,0.41060558,0.7104794,-9.563953,1.7742203,1.2463171419803796819.00,-10.282497,0.17657238,0.6799533,-9.564104,1.7779695,1.2398161419803796840.00,-10.630256,0.10115502,0.6254852,-9.565413,1.7797216,1.22713531419803796841.00,-11.450869,0.03172317,0.43634325,-9.568574,1.7783508,1.20426121419803796849.00,-12.354679,-0.12030864,0.17836803,-9.575287,1.7689028,1.16416941419803796872.00,-13.015479,-0.25378537,-0.19572599,-9.586248,1.7450776,1.10857921419803796872.00,-13.268666,-0.33159694,-0.62847793,-9.601924,1.7063273,1.03049221419803796879.00,-13.096283,-0.21906945,-1.3754689,-9.620199,1.6584244,0.93371411419803796889.00,-12.406155,0.5069722,-7.102998,-9.6387615,1.6119673,0.81621941419803796918.00,-10.995371,1.3138182,-9.964069,-9.663417,1.5827628,0.53255441419803796919.00,-9.576208,2.0380642,15.011644,-9.6767645,1.5803174,0.18226621419803796948.00,-8.709507,0.8583213,5.5820813,-9.657158,1.5784861,0.646594641419803796949.00,-8.851364,0.5374983,-6.7773867,-9.648089,1.5443332,0.83655611419803796950.00,-9.156625,1.4036007,-5.5192337,-9.639942,1.4937307,1.00532451419803796950.00,-9.964667,2.3469162,-3.815759,-9.653256,1.4441297,0.948429471419803796970.00,-11.341333,3.0711622,-2.5181017,-9.698824,1.36733,0.483314281419803796971.00,-12.72997,3.6433764,-1.6759412,-9.726372,1.2495805,0.081322191419803796978.00,-13.498509,4.3544545,-1.673547,-9.740935,1.1199243,-0.17416591419803797012.00,-13.392566,5.3205147,-1.5011644,-9.748257,0.99677473,-0.385107581419803797013.00,-12.659342,6.105214,-0.6123171,-9.748738,0.9083423,-0.554447051419803797013.00,-12.097302,5.8867435,0.6985083,-9.745941,0.86052567,-0.66822371419803797020.00,-11.5616,5.120599,-0.08619126,-9.74514,0.8304016,-0.716307641419803797045.00,-10.484209,4.835689,-0.85652566,-9.745632,0.7922728,-0.75188631419803797046.00,-9.241618,4.7656584,-0.27353755,-9.743992,0.7449945,-0.81854111419803797047.00,-8.962694,4.4059296,-0.37948096,-9.740036,0.69463384,-0.905291141419803797069.00,-8.853159,3.8085763,-0.85652566,-9.730151,0.6464777,-1.03760711419803797070.00,-8.656237,3.086126,-1.2587515,-9.719645,0.5915404,-1.16144911419803797108.00,-8.038532,2.3475149,-1.5711949,-9.711156,0.52716964,-1.25932551419803797108.00,-7.2143283,1.5915456,-1.5921441,-9.70353,0.45961702,-1.34188931419803797109.00,-6.8653736,0.6194997,-1.0253168,-9.696897,0.39078942,-1.40992471419803797109.00,-7.176021,-0.3489549,-0.19931729,-9.691783,0.31903002,-1.46218221419803797118.00,-7.477092,-0.9187749,-0.040102877,-9.688013,0.24085853,-1.50159181419803797132.00,-7.630321,-0.33638534,-0.40821138,-9.685086,0.1496664,-1.53202781419803797154.00,-7.1580644,0.9864111,-0.51116204,-9.681753,0.056833357,-1.55910991419803797155.00,-6.4864907,2.0081367,-0.15682021,-9.676157,-0.021566812,-1.59433561419803797159.00,-5.759252,2.7461493,0.5847838,-9.6667385,-0.0787012,-1.64874341419803797167.00,-5.273229,3.2543187,1.3479356,-9.654295,-0.12132176,-1.71763861419803797191.00,-5.1277814,3.5685577,1.8884265,-9.641818,-0.14235358,-1.7847851419803797192.00,-4.980538,3.7523127,1.8680758,-9.630304,-0.14716887,-1.84551861419803797199.00,-4.909311,3.8851907,1.4389153,-9.620161,-0.14335342,-1.89798521419803797226.00,-5.2169657,3.8055837,0.85772276,-9.612156,-0.13381445,-1.93879721419803797227.00,-5.825093,3.447052,0.12210429,-9.607436,-0.12061419,-1.96291741419803797228.00,-6.3482256,3.0226796,-0.51235914,-9.606432,-0.103399,-1.96879841419803797257.00,-6.721721,2.7635074,-0.9163807,-9.610007,-0.08801848,-1.95203541419803797258.00,-6.962937,2.5767596,-1.1360487,-9.6159525,-0.061436906,-1.92356861419803797259.00,-7.144298,2.4720132,-1.292869,-9.626497,-0.018720629,-1.87099611419803797268.00,-7.167641,2.4067712,-1.3958195,-9.639333,0.040618133,-1.80333361419803797289.00,-7.337031,2.2331917,-1.353921,-9.652311,0.11549568,-1.72914091419803797290.00,-7.77517,1.9542671,-1.283292,-9.664208,0.20462023,-1.65276551419803797299.00,-8.30369,1.4700398,-1.0432734,-9.674487,0.29758945,-1.57674731419803797319.00,-9.185355,0.79966336,-1.0319009,-9.683607,0.39678413,-1.49688981419803797338.00,-10.48002,-0.020350715,-1.9428947,-9.69144,0.49522844,-1.41462481419803797339.00,-11.793838,-1.3628993,-4.110844,-9.696415,0.5832236,-1.3452971419803797339.00,-13.750499,-3.572149,-5.7736173,-9.696965,0.64178896,-1.31428871419803797347.00,-15.83525,-6.385336,-5.593454,-9.696908,0.6341609,-1.3184121419803797368.00,-17.736246,-9.037513,-4.9200845,-9.7036085,0.52119726,-1.31861131419803797369.00,-17.587805,-9.438541,-5.0493712,-9.715369,0.30501792,-1.29960551419803797382.00,-14.503475,-6.5445504,-5.8478374,-9.725068,0.032894116,-1.2618911419803797403.00,-11.957242,-3.41892,-4.8668137,-9.729454,-0.17461875,-1.21556771419803797404.00,-10.356718,-1.1007342,-1.7645266,-9.733473,-0.2995929,-1.15764981419803797407.00,-10.4644575,1.8010383,2.3062148,-9.736542,-0.36049613,-1.11362531419803797442.00,-12.187684,4.043208,5.889736,-9.739425,-0.3679466,-1.08564481419803797443.00,-13.683461,5.60722,7.349601,-9.748786,-0.3304138,-1.01112351419803797443.00,-14.632164,7.839813,5.913678,-9.763481,-0.24950442,-0.88464351419803797448.00,-13.375807,10.302849,1.8034325,-9.778185,-0.0969914,-0.7403351419803797470.00,-11.267113,9.792884,-7.693767,-9.783354,0.13138978,-0.66266491419803797471.00,-10.479421,7.445967,-11.097125,-9.769175,0.3515265,-0.78108261419803797479.00,-8.202535,6.0639143,-8.409634,-9.743158,0.4615667,-1.01400981419803797507.00,-6.3913217,5.203199,-3.41473,-9.72068,0.49151877,-1.19883171419803797508.00,-5.517438,4.509479,1.8782512,-9.711009,0.4791733,-1.27948161419803797509.00,-5.9148755,3.3261447,3.4919431,-9.715091,0.49518305,-1.24186891419803797519.00,-6.5990186,2.333748,2.681506,-9.716356,0.53531116,-1.21502051419803797544.00,-6.8767457,1.7537527,1.8082209,-9.710936,0.5796537,-1.23778181419803797545.00,-7.21373,1.7328035,1.5741876,-9.703727,0.6337233,-1.26748191419803797547.00,-7.8039002,2.1380222,1.7405846,-9.69617,0.7127891,-1.28319511419803797569.00,-8.687361,2.3133974,1.9692309,-9.689725,0.80849856,-1.27513341419803797570.00,-9.5971575,2.087744,2.1577742,-9.682206,0.92653465,-1.25172091419803797589.00,-10.383054,1.6687586,2.2104468,-9.674384,1.0476112,-1.21622471419803797590.00,-10.621876,1.2324153,2.0590134,-9.664693,1.1588593,-1.19211721419803797599.00,-10.57878,0.801459,1.7112557,-9.652044,1.2573776,-1.19476631419803797615.00,-10.468647,0.5291186,1.2755109,-9.656483,1.2523655,-1.16374281419803797632.00,-10.305243,0.45908818,0.7308301,-9.616413,1.4274276,-1.28742231419803797633.00,-10.056246,0.43634325,0.17657238,-9.595226,1.5043836,-1.35603941419803797653.00,-9.668983,0.3441665,-0.22804771,-9.5730715,1.5763683,-1.42889711419803797654.00,-9.153631,0.2896984,-0.5057751,-9.552782,1.6407143,-1.49090431419803797659.00,-8.564059,0.39205053,-0.5614403,-9.536968,1.696061,-1.52969971419803797667.00,-8.118738,0.46686932,-0.30945057,-9.527315,1.7451009,-1.53469261419803797687.00,-7.961918,0.57520694,0.142455,-9.525126,1.7885189,-1.49784491419803797690.00,-7.9206176,0.7918822,0.664391,-9.530285,1.8292155,-1.41350321419803797699.00,-7.912238,1.0199299,0.93373865,-9.538642,1.8654081,-1.3057431419803797718.00,-8.057686,1.2419921,0.89782566,-9.550292,1.8978459,-1.16638421419803797733.00,-8.144476,1.4077905,0.7906851,-9.561674,1.9252902,-1.01885151419803797734.00,-8.194156,1.4814123,0.6769605,-9.571023,1.9467171,-0.88102181419803797749.00,-8.005612,1.9967642,0.092176765,-9.578114,1.9627621,-0.76007721419803797750.00,-8.0606785,2.0386627,-0.0712275,-9.581886,1.9814322,-0.657096151419803797765.00,-8.240842,2.0015526,-0.044292733,-9.58395,2.000311,-0.563087461419803797767.00,-8.158242,2.0763714,0.025737667,-9.584966,2.018492,-0.47381419803797783.00,-8.1343,2.0925324,0.08678981,-9.584947,2.0365593,-0.389384541419803797796.00,-8.213309,2.079364,0.22924481,-9.583505,2.0575283,-0.305669871419803797799.00,-8.467693,1.9488802,0.3597288,-9.580389,2.0830424,-0.217867671419803797814.00,-8.650849,1.858499,0.39983168,-9.57625,2.1096587,-0.123157011419803797829.00,-8.793902,1.7926586,0.4177882,-9.571351,2.1352053,-0.0232154561419803797829.00,-8.938752,1.7208325,0.427365,-9.5656395,2.159402,0.0770639551419803797846.00,-9.063849,1.6424223,0.47345337,-9.559087,2.182743,0.172920871419803797847.00,-9.135675,1.6238673,0.51595044,-9.55184,2.2059448,0.25798751419803797860.00,-9.247005,1.5586253,0.5566519,-9.544079,2.2299402,0.329099271419803797878.00,-9.339781,1.5143325,0.61171854,-9.536156,2.2541702,0.388370361419803797879.00,-9.415796,1.4909891,0.6434417,-9.5282345,2.2778444,0.441134571419803797900.00,-9.476251,1.3820529,0.62129533,-9.520251,2.3009825,0.49061321419803797901.00,-9.712079,1.3072342,0.5566519,-9.512539,2.3223681,0.537231419803797924.00,-10.069414,1.2761095,0.5081693,-9.505231,2.3415546,0.581456661419803797924.00,-10.222643,1.2791022,0.5105635,-9.498546,2.3580177,0.62271571419803797929.00,-10.420763,1.1803415,0.50397944,-9.49195,2.373952,0.66153911419803797948.00,-10.679935,1.1013328,0.53091425,-9.485468,2.3889244,0.6995261419803797949.00,-10.717644,1.0480618,0.521936,-9.479138,2.4019673,0.739520131419803797961.00,-10.476428,0.98940384,0.5141548,-9.472951,2.4133925,0.780475261419803797967.00,-10.0029745,0.8834604,0.4830302,-9.466224,2.425589,0.823120831419803797979.00,-9.730635,0.7942764,0.504578,-9.458925,2.440088,0.86319331419803797994.00,-10.361506,0.777517,0.4321534,-9.451542,2.456103,0.89794721419803798013.00,-11.253945,0.6895301,0.28790274,-9.445545,2.4692626,0.92456811419803798013.00,-11.76391,0.43754035,0.13108255,-9.441901,2.476531,0.942163941419803798027.00,-11.884218,0.18315643,-0.19692309,-9.441571,2.4736679,0.95293441419803798028.00,-12.02428,-0.036511578,-2.2230163,-9.444508,2.4619493,0.954184061419803798053.00,-12.318767,0.076614454,-9.5732155,-9.45166,2.4438877,0.929468751419803798053.00,-11.845911,0.25079262,11.825561,-9.470994,2.4173303,0.791947071419803798060.00,-12.922704,-3.306991,4.5902834,-9.462515,2.3869736,0.96621351419803798087.00,-12.797606,-3.8977604,-7.6919713,-9.469485,2.3120797,1.0740241419803798088.00,-11.183915,-1.8489223,-6.9491706,-9.481473,2.2152143,1.16827871419803798089.00,-10.635044,-0.05566519,-5.843049,-9.497397,2.1370845,1.18437171419803798100.00,-10.964247,1.472434,-5.481525,-9.548632,2.0834064,0.80836691419803798125.00,-11.911752,2.3540988,-3.9240966,-9.5892515,2.0227609,0.353668481419803798125.00,-12.889784,2.5264814,-1.5454572,-9.615722,1.9228795,0.103927411419803798128.00,-13.292009,3.0059202,0.57281274,-9.643387,1.7815018,-0.0419096351419803798160.00,-13.268067,3.714604,1.8836381,-9.668458,1.6307617,-0.178679571419803798161.00,-12.899361,4.3598413,1.6005238,-9.689318,1.4837521,-0.29323241419803798161.00,-12.42052,4.7363296,0.05925649,-9.701804,1.366919,-0.42058221419803798189.00,-11.729194,4.7536874,-0.19752164,-9.705537,1.2825052,-0.57284431419803798192.00,-10.910975,4.678869,0.7565677,-9.702407,1.2155565,-0.745735941419803798197.00,-10.093356,4.507085,1.2695254,-9.694238,1.1519104,-0.93020991419803798203.00,-9.52593,4.1916485,0.81522566,-9.684424,1.0862732,-1.09650351419803798245.00,-8.928576,3.4859576,-0.7392098,-9.676812,1.0158542,-1.223821419803798246.00,-8.330027,2.461838,-2.2523453,-9.668665,0.93683547,-1.34523981419803798248.00,-7.965509,1.2725182,-2.5893292,-9.660924,0.84929293,-1.45453311419803798249.00,-7.8068933,0.480636,-2.0201077,-9.652851,0.75710183,-1.55551561419803798251.00,-7.7087307,0.15741876,-1.0947487,-9.645174,0.66588825,-1.64243761419803798276.00,-7.7159133,0.39504328,-0.12150574,-9.639671,0.5778614,-1.7068181419803798277.00,-7.6123643,1.1737574,0.23163901,-9.635623,0.49280837,-1.75564661419803798279.00,-7.3112936,2.0380642,0.26396075,-9.630996,0.41297305,-1.80104761419803798301.00,-6.578069,2.8173769,0.7212533,-9.623983,0.33995634,-1.85304551419803798302.00,-5.631761,3.6008794,1.5029601,-9.613806,0.27876288,-1.91505281419803798307.00,-5.070919,4.1539397,2.1003134,-9.599566,0.2348495,-1.99087511419803798335.00,-4.771045,4.490924,2.1517887,-9.582987,0.20748174,-2.07212421419803798336.00,-4.574721,4.5555673,1.7741034,-9.567746,0.19195348,-2.14285251419803798341.00,-4.7884035,4.3101616,1.1264719,-9.556486,0.17602059,-2.19385271419803798348.00,-5.305551,3.90614,0.22864626,-9.54656,0.16245763,-2.23767261419803798380.00,-5.655703,3.645172,-0.25498247,-9.539683,0.15140432,-2.26757261419803798381.00,-5.98311,3.4644098,-0.22685061,-9.536531,0.14420184,-2.2812711419803798382.00,-6.3991027,3.3159695,-0.12689269,-9.539378,0.14510244,-2.26927071419803798409.00,-6.7785835,3.2381577,-0.21308395,-9.547693,0.15677448,-2.23324541419803798410.00,-7.007828,3.17531,-0.42556936,-9.559242,0.17436376,-2.18194531419803798410.00,-6.9796963,3.0550013,-0.6398504,-9.571317,0.20451602,-2.12567471419803798431.00,-6.8504095,2.8862102,-0.9044097,-9.584004,0.2475047,-2.06300931419803798432.00,-6.989872,2.698864,-1.0313023,-9.595712,0.30273163,-2.00027251419803798447.00,-7.4070616,2.5222914,-1.0809821,-9.606127,0.36961687,-1.93806481419803798447.00,-7.7949224,2.3068132,-1.0672154,-9.615349,0.4480448,-1.87475291419803798462.00,-8.156446,1.8800468,-1.0785879,-9.62323,0.53847706,-1.80939161419803798478.00,-8.785523,1.0761937,-1.6256629,-9.630154,0.6333115,-1.74053611419803798479.00,-10.0748005,-0.19632454,-2.5671828,-9.6347,0.73526484,-1.67402521419803798504.00,-11.6986685,-1.775899,-3.8229415,-9.6369095,0.83305925,-1.61443781419803798505.00,-13.411719,-3.657143,-4.999093,-9.637878,0.9091097,-1.56689921419803798507.00,-15.435418,-5.6700683,-5.732916,-9.640011,0.9454631,-1.53189221419803798542.00,-17.594389,-7.179612,-5.7065797,-9.64679,0.9205472,-1.50415311419803798543.00,-18.22646,-6.979098,-5.8903346,-9.660229,0.8406303,-1.4641451419803798544.00,-14.806342,-4.180875,-6.740875,-9.676904,0.7161685,-1.41950961419803798548.00,-12.226589,-2.2541409,-5.142745,-9.692269,0.60470355,-1.36552911419803798574.00,-10.732009,-1.2611457,-1.6466122,-9.709584,0.506733,-1.2796811419803798575.00,-10.779295,0.46926352,1.2330139,-9.725265,0.43040422,-1.18504921419803798579.00,-11.99495,2.1140802,3.6302083,-9.735933,0.38248745,-1.11161981419803798611.00,-13.23814,3.4967315,4.9123034,-9.7441025,0.3607948,-1.04532971419803798612.00,-14.684836,4.8602295,4.7668557,-9.7523155,0.36015257,-0.96593821419803798612.00,-15.546749,3.855862,3.8971617,-9.759726,0.39199567,-0.874348341419803798645.00,-15.840038,2.6970682,-1.8968062,-9.76661,0.4304179,-0.77361531419803798645.00,-12.185888,4.410718,-2.6713305,-9.767965,0.43768153,-0.752114831419803798646.00,-6.7851677,6.227319,-6.0663085,-9.764872,0.41384947,-0.80399291419803798648.00,-3.079542,6.4164605,-7.7907324,-9.750475,0.40409023,-0.967138231419803798663.00,-2.3624785,5.3875523,-3.3716345,-9.729671,0.41444415,-1.15418351419803798680.00,-4.8620253,3.9019501,2.3582888,-9.711151,0.43665877,-1.29354231419803798681.00,-6.980295,3.0801406,4.5687356,-9.698157,0.4627518,-1.37912681419803798694.00,-7.1664443,2.771887,3.7870286,-9.69998,0.5022136,-1.35224521419803798712.00,-7.147889,3.040636,2.830545,-9.709785,0.57073915,-1.2509021419803798712.00,-7.709928,3.681085,2.224812,-9.714691,0.67972136,-1.15462021419803798729.00,-8.895058,3.9318779,1.7872716,-9.711526,0.8092087,-1.09627541419803798729.00,-10.13286,3.7134068,1.5167267,-9.702422,0.9618295,-1.05275021419803798743.00,-10.970831,3.3201592,1.3724761,-9.688832,1.1146005,-1.02692081419803798748.00,-11.306618,2.7102363,1.1528081,-9.672554,1.2553596,-1.01791681419803798760.00,-11.122863,2.0165164,0.9624691,-9.654488,1.3795937,-1.0285821419803798780.00,-10.697892,1.3245921,0.8265981,-9.635828,1.4868282,-1.05383921419803798780.00,-10.4883995,0.705691,0.64583594,-9.617553,1.5775869,-1.08826111419803798792.00,-10.311827,0.35793316,0.46746787,-9.599025,1.6578023,-1.13173141419803798812.00,-10.039486,0.15622166,0.1921347,-9.581965,1.7245196,-1.17574661419803798812.00,-9.554661,-0.031124622,-0.08319851,-9.565904,1.7823559,-1.21947051419803798829.00,-9.09617,-0.08319851,-0.25857377,-9.551239,1.8348112,-1.25606621419803798830.00,-8.579621,0.08200141,-0.3776853,-9.538415,1.8840619,-1.28036651419803798844.00,-8.41502,0.23343466,-0.3441665,-9.528075,1.9322451,-1.28555251419803798848.00,-8.410232,0.32441434,-0.06584055,-9.521693,1.9796681,-1.26042091419803798860.00,-8.286931,0.45010993,0.65062433,-9.518555,2.0224771,-1.21534851419803798878.00,-8.098986,0.61052144,1.4053963,-9.521233,2.06059,-1.12717631419803798880.00,-8.177995,0.58418524,1.6759412,-9.5279045,2.09504,-1.00010931419803798894.00,-8.26658,0.49081135,1.9949685,-9.536412,2.1236868,-0.84686061419803798913.00,-8.325238,0.5117606,2.2200236,-9.545004,2.144977,-0.67995391419803798914.00,-8.2354555,0.70509243,1.9961656,-9.551627,2.1611967,-0.51582131419803798930.00,-8.013393,0.97025025,1.4047978,-9.554828,2.1763756,-0.372924981419803798930.00,-7.93199,1.1246762,0.694917,-9.5555935,2.190363,-0.25165831419803798944.00,-7.8475947,1.1558008,0.08738836,-9.555084,2.2010515,-0.161712661419803798961.00,-7.829638,1.2449849,-0.36152446,-9.554467,2.207493,-0.0974859741419803798961.00,-7.8344264,1.4526819,-0.6739678,-9.553825,2.2119107,-0.0475093541419803798981.00,-8.019978,1.6412252,-0.8265981,-9.552339,2.2188275,0.0015086511419803798982.00,-8.310274,1.83336,-0.7290344,-9.549948,2.2283013,0.059773211419803799000.00,-8.5622635,2.0284874,-0.46088383,-9.546065,2.2420704,0.127074481419803799001.00,-8.861539,2.1877017,-0.13946225,-9.540242,2.260139,0.214354711419803799010.00,-9.205107,2.3062148,0.15622166,-9.531761,2.283059,0.321800951419803799034.00,-9.455301,2.3517046,0.3561375,-9.520485,2.3095844,0.44340021419803799034.00,-9.544485,2.3481133,0.56323594,-9.506873,2.3379934,0.56882511419803799042.00,-9.566631,2.2852654,0.6805518,-9.491008,2.3694804,0.690463541419803799087.00,-9.537302,2.1631613,0.7667431,-9.473532,2.4026072,0.80626731419803799089.00,-9.546281,2.0087352,0.84096336,-9.45394,2.439908,0.91665371419803799090.00,-9.695918,1.827973,0.86610246,-9.4327755,2.480933,1.01887831419803799091.00,-10.242394,1.4413095,0.6997054,-9.410743,2.5240211,1.11248371419803799092.00,-10.486005,1.234211,0.5758055,-9.389727,2.5650218,1.19336581419803799123.00,-10.563218,1.0887632,0.5386954,-9.370017,2.6049592,1.25990771419803799124.00,-10.471041,0.98222125,0.51116204,-9.351805,2.6438892,1.31300871419803799124.00,-10.200497,0.8086416,0.51355624,-9.334409,2.6813657,1.35996741419803799131.00,-9.829395,0.6278794,0.54647654,-9.318933,2.716539,1.39581371419803799149.00,-9.540894,0.40521863,0.6572084,-9.305904,2.748118,1.42069861419803799150.00,-9.631873,0.27593175,0.75716627,-9.2960005,2.773592,1.43595461419803799160.00,-10.66138,0.20470424,0.82360536,-9.289822,2.7910185,1.44215171419803799183.00,-11.903971,0.10235212,0.8122329,-9.289155,2.7954006,1.43795841419803799184.00,-12.386402,0.019153614,0.6290765,-9.294031,2.7881975,1.42033271419803799192.00,-12.217611,-0.06943185,0.36511576,-9.303505,2.7690277,1.39557871419803799230.00,-11.735778,-0.11133038,0.060453594,-9.316027,2.7445517,1.35995631419803799231.00,-11.504738,0.038905777,-1.8303672,-9.329552,2.719073,1.31776431419803799233.00,-11.14441,0.50996494,2.7790697,-9.345704,2.6917367,1.25807581419803799234.00,-10.506954,-0.581791,10.439917,-9.355343,2.6624935,1.24863111419803799256.00,-9.814431,-1.8255788,-2.3630772,-9.355785,2.6111763,1.34961371419803799256.00,-9.172187,-1.0720038,-3.7828386,-9.374063,2.5645146,1.31171741419803799262.00,-9.163208,0.11252748,-3.1884782,-9.392001,2.5231948,1.26261351419803799282.00,-9.936536,1.2545617,-4.24073,-9.4348955,2.4781342,1.00597271419803799283.00,-11.304223,2.0799627,-5.932832,-9.491372,2.4032245,0.555631341419803799289.00,-12.861651,2.6886885,-5.120599,-9.536523,2.2798643,0.16538931419803799337.00,-13.928268,3.4153287,-1.697489,-9.57449,2.1174517,-0.126234521419803799338.00,-13.95221,4.0659533,-0.39085343,-9.606112,1.9452237,-0.330342561419803799342.00,-13.2034235,4.5567646,-0.9379285,-9.633092,1.7768573,-0.465513831419803799343.00,-12.637196,5.0523643,-0.04249708,-9.654579,1.6331133,-0.54077511419803799343.00,-12.31278,5.2439003,0.7386112,-9.667921,1.5216173,-0.621569451419803799378.00,-12.005724,5.0266266,0.53450555,-9.669911,1.4359087,-0.775491651419803799379.00,-11.128249,4.787206,0.11851298,-9.663947,1.3649924,-0.9567321419803799380.00,-10.166379,4.563947,-0.108936176,-9.657741,1.2953086,-1.10483351419803799407.00,-9.640253,3.9773676,-0.5638345,-9.650646,1.2270638,-1.23681391419803799407.00,-9.097966,3.3171666,-1.3904326,-9.644287,1.1538525,-1.35157841419803799408.00,-8.462905,2.457648,-2.055422,-9.637778,1.0715773,-1.46129011419803799409.00,-7.849989,1.5945383,-1.8728642,-9.631354,0.9797857,-1.5644291419803799433.00,-7.482479,1.1091139,-1.0600328,-9.624548,0.8844737,-1.66018191419803799434.00,-7.2646065,0.97862995,-0.24779987,-9.617154,0.78950757,-1.74854171419803799442.00,-7.038953,1.1504139,0.08798691,-9.61056,0.6953999,-1.8231561419803799459.00,-6.999449,1.7262194,0.2160767,-9.60458,0.6033967,-1.88635391419803799460.00,-6.7043633,2.4666264,0.3585317,-9.600661,0.51611704,-1.9316621419803799479.00,-5.943606,3.079542,0.56563014,-9.597159,0.4376152,-1.96810631419803799495.00,-5.1421466,3.4955344,0.78649527,-9.5916195,0.3741361,-2.00778941419803799495.00,-4.5513773,3.7720647,1.0007763,-9.583262,0.3286489,-2.05510351419803799513.00,-4.2413282,3.8402996,1.1653777,-9.573879,0.29229048,-2.10376141419803799514.00,-4.197634,3.6924577,1.2437878,-9.564283,0.26825494,-2.15009551419803799520.00,-4.4861355,3.3758245,1.067814,-9.556349,0.25196284,-2.18704131419803799529.00,-5.300164,2.9095535,0.65660983,-9.551614,0.24051367,-2.20890521419803799543.00,-5.7185507,2.6617537,0.2208651,-9.55199,0.23382089,-2.20799351419803799566.00,-6.0651116,2.4791958,0.08379706,-9.557252,0.23515564,-2.18495871419803799567.00,-6.3883286,2.3139958,0.04369418,-9.566411,0.249323,-2.14289121419803799569.00,-6.7450647,2.2182279,-0.076614454,-9.578465,0.27026203,-2.0857531419803799598.00,-6.9330096,2.3008277,-0.2669535,-9.590843,0.30447116,-2.02321741419803799599.00,-6.8408327,2.5210943,-0.5805939,-9.60365,0.35189342,-1.95358621419803799600.00,-7.1107793,2.697667,-1.0342951,-9.615481,0.41548356,-1.8815591419803799609.00,-7.4974427,2.746748,-1.4736311,-9.625202,0.4990179,-1.8102171419803799629.00,-8.062474,2.4552538,-1.4969746,-9.631913,0.6003933,-1.74245981419803799629.00,-9.072827,1.87047,-1.1773487,-9.636947,0.70733124,-1.67312381419803799645.00,-10.472239,0.9307459,-1.8052281,-9.640756,0.82212687,-1.59697581419803799659.00,-12.185289,-0.9768343,-4.8704047,-9.643152,0.9357469,-1.51801381419803799660.00,-14.389153,-4.298789,-8.541314,-9.641804,1.0249071,-1.46819271419803799675.00,-17.386692,-8.464102,-8.519168,-9.6385355,1.040718,-1.47849671419803799694.00,-19.606716,-12.70124,-6.8492126,-9.645008,0.9246353,-1.51302271419803799695.00,-18.96567,-13.060968,-5.7766104,-9.655426,0.9023583,-1.45907431419803799711.00,-13.98513,-9.218874,-4.660912,-9.673517,0.8257818,-1.38257671419803799711.00,-10.356119,-4.994903,-1.9812019,-9.182826,-2.3660307,-2.49960731419803799730.00,-10.531495,-1.2300211,1.0097545,-9.16696,-2.5293055,-2.39580511419803799730.00,-13.333908,2.1775265,3.8893807,-9.269577,-2.3661916,-2.15556121419803799740.00,-15.224729,4.5872903,6.3829417,-9.4623,-1.9362639,-1.69886271419803799762.00,-16.180614,6.9886746,7.495647,-9.658253,-1.3474636,-1.03579741419803799762.00,-14.511855,9.150041,5.49589,-9.7818365,-0.62495327,-0.308993461419803799775.00,-12.125435,8.851364,-2.3451207,-9.803089,0.2032973,0.16881111419803799795.00,-9.485229,8.401853,-9.409811,-9.764425,0.9085905,-0.0289309121419803799795.00,-5.993285,7.960122,-13.255498,-9.660683,1.4528351,-0.854912941419803799814.00,-4.100669,6.4062853,-7.6309195,-9.407031,1.9209795,-1.99700391419803799815.00,-4.0019083,4.972757,0.62009823,-9.177696,2.3428752,-2.5399371419803799821.00,-5.705383,3.7421372,5.201403,-9.143303,2.7186978,-2.27576471419803799829.00,-7.091027,2.8365304,5.1541176,-9.218885,2.9600315,-1.55588631419803799851.00,-7.3753386,2.3511062,3.9121256,-9.273172,3.0655148,-0.88389121419803799852.00,-7.567473,2.517503,3.1848867,-9.300676,3.086064,